"id","itemTime","trial.","condition","value","access","observation","answer","RT","uncertainty"
"a5a9dcd28c578a92015209a480db30c0bf892168a9746b74808c30d909eeb3b5","1,48762E+12",1,"none",107,10,7,"certainly",23547,"none"
"a5a9dcd28c578a92015209a480db30c0bf892168a9746b74808c30d909eeb3b5","1,48762E+12",2,"high",42,4,2,"possibly",12494,"high"
"a5a9dcd28c578a92015209a480db30c0bf892168a9746b74808c30d909eeb3b5","1,48762E+12",3,"low",86,8,6,"probably",9473,"low"
"a5a9dcd28c578a92015209a480db30c0bf892168a9746b74808c30d909eeb3b5","1,48762E+12",4,"high",22,2,2,"possibly",10714,"high"
"a5a9dcd28c578a92015209a480db30c0bf892168a9746b74808c30d909eeb3b5","1,48762E+12",5,"low",84,8,4,"possibly",15955,"low"
"a5a9dcd28c578a92015209a480db30c0bf892168a9746b74808c30d909eeb3b5","1,48762E+12",6,"low",88,8,8,"certainly",4302,"low"
"a5a9dcd28c578a92015209a480db30c0bf892168a9746b74808c30d909eeb3b5","1,48762E+12",7,"high",43,4,3,"probably",6948,"high"
"a5a9dcd28c578a92015209a480db30c0bf892168a9746b74808c30d909eeb3b5","1,48762E+12",8,"none",102,10,2,"certainlyNot",5345,"none"
"a5a9dcd28c578a92015209a480db30c0bf892168a9746b74808c30d909eeb3b5","1,48762E+12",9,"none",105,10,5,"possibly",5354,"none"
"7711eb71ede60b7978c191750391d0bfde57cd95554755f41dff0279d0c7effe","1,48762E+12",1,"high",22,2,2,"probably",11721,"high"
"7711eb71ede60b7978c191750391d0bfde57cd95554755f41dff0279d0c7effe","1,48762E+12",2,"none",107,10,7,"possibly",7124,"none"
"7711eb71ede60b7978c191750391d0bfde57cd95554755f41dff0279d0c7effe","1,48762E+12",3,"none",108,10,8,"probably",5336,"none"
"7711eb71ede60b7978c191750391d0bfde57cd95554755f41dff0279d0c7effe","1,48762E+12",4,"none",103,10,3,"probablyNot",7179,"none"
"7711eb71ede60b7978c191750391d0bfde57cd95554755f41dff0279d0c7effe","1,48762E+12",5,"low",82,8,2,"probablyNot",3844,"low"
"7711eb71ede60b7978c191750391d0bfde57cd95554755f41dff0279d0c7effe","1,48762E+12",6,"high",42,4,2,"possibly",3633,"high"
"7711eb71ede60b7978c191750391d0bfde57cd95554755f41dff0279d0c7effe","1,48762E+12",7,"high",43,4,3,"possibly",3681,"high"
"7711eb71ede60b7978c191750391d0bfde57cd95554755f41dff0279d0c7effe","1,48762E+12",8,"low",80,8,0,"certainlyNot",2267,"low"
"7711eb71ede60b7978c191750391d0bfde57cd95554755f41dff0279d0c7effe","1,48762E+12",9,"low",86,8,6,"probably",3071,"low"
"636c0fc0d65022f2b8c4151bc731de159f2b20a9ba9cc72b06a4c11ea8337d28","1,48762E+12",1,"none",108,10,8,"certainly",9731,"none"
"636c0fc0d65022f2b8c4151bc731de159f2b20a9ba9cc72b06a4c11ea8337d28","1,48762E+12",2,"low",82,8,2,"probablyNot",6004,"low"
"636c0fc0d65022f2b8c4151bc731de159f2b20a9ba9cc72b06a4c11ea8337d28","1,48762E+12",3,"high",41,4,1,"probably",9585,"high"
"636c0fc0d65022f2b8c4151bc731de159f2b20a9ba9cc72b06a4c11ea8337d28","1,48762E+12",4,"low",84,8,4,"possibly",4331,"low"
"636c0fc0d65022f2b8c4151bc731de159f2b20a9ba9cc72b06a4c11ea8337d28","1,48762E+12",5,"high",42,4,2,"possibly",2443,"high"
"636c0fc0d65022f2b8c4151bc731de159f2b20a9ba9cc72b06a4c11ea8337d28","1,48762E+12",6,"none",107,10,7,"probably",3263,"none"
"636c0fc0d65022f2b8c4151bc731de159f2b20a9ba9cc72b06a4c11ea8337d28","1,48762E+12",7,"low",86,8,6,"probably",3035,"low"
"636c0fc0d65022f2b8c4151bc731de159f2b20a9ba9cc72b06a4c11ea8337d28","1,48762E+12",8,"none",102,10,2,"possibly",4672,"none"
"636c0fc0d65022f2b8c4151bc731de159f2b20a9ba9cc72b06a4c11ea8337d28","1,48762E+12",9,"high",43,4,3,"possibly",1717,"high"
"6e74f0168362525a662cdbfd0501709487e592f746be7f6b5ff76cf6305a8cdb","1,48764E+12",1,"high",43,4,3,"probably",7070,"high"
"6e74f0168362525a662cdbfd0501709487e592f746be7f6b5ff76cf6305a8cdb","1,48764E+12",2,"none",105,10,5,"possibly",7555,"none"
"6e74f0168362525a662cdbfd0501709487e592f746be7f6b5ff76cf6305a8cdb","1,48764E+12",3,"low",84,8,4,"possibly",6191,"low"
"6e74f0168362525a662cdbfd0501709487e592f746be7f6b5ff76cf6305a8cdb","1,48764E+12",4,"none",108,10,8,"probably",6601,"none"
"6e74f0168362525a662cdbfd0501709487e592f746be7f6b5ff76cf6305a8cdb","1,48764E+12",5,"none",103,10,3,"probablyNot",4469,"none"
"6e74f0168362525a662cdbfd0501709487e592f746be7f6b5ff76cf6305a8cdb","1,48764E+12",6,"high",41,4,1,"probablyNot",3695,"high"
"6e74f0168362525a662cdbfd0501709487e592f746be7f6b5ff76cf6305a8cdb","1,48764E+12",7,"low",82,8,2,"probablyNot",3441,"low"
"6e74f0168362525a662cdbfd0501709487e592f746be7f6b5ff76cf6305a8cdb","1,48764E+12",8,"low",88,8,8,"certainly",2820,"low"
"6e74f0168362525a662cdbfd0501709487e592f746be7f6b5ff76cf6305a8cdb","1,48764E+12",9,"high",42,4,2,"possibly",3634,"high"
"ca1ab928664d782377356797c768710ffe48858273c425efc8ed4e1ad6046587","1,48762E+12",1,"none",108,10,8,"probably",14767,"none"
"ca1ab928664d782377356797c768710ffe48858273c425efc8ed4e1ad6046587","1,48762E+12",2,"low",84,8,4,"probablyNot",10256,"low"
"ca1ab928664d782377356797c768710ffe48858273c425efc8ed4e1ad6046587","1,48762E+12",3,"high",22,2,2,"probablyNot",5471,"high"
"ca1ab928664d782377356797c768710ffe48858273c425efc8ed4e1ad6046587","1,48762E+12",4,"low",86,8,6,"probably",9757,"low"
"ca1ab928664d782377356797c768710ffe48858273c425efc8ed4e1ad6046587","1,48762E+12",5,"none",102,10,2,"probablyNot",4978,"none"
"ca1ab928664d782377356797c768710ffe48858273c425efc8ed4e1ad6046587","1,48762E+12",6,"high",42,4,2,"possibly",3156,"high"
"ca1ab928664d782377356797c768710ffe48858273c425efc8ed4e1ad6046587","1,48762E+12",7,"none",107,10,7,"certainly",5644,"none"
"ca1ab928664d782377356797c768710ffe48858273c425efc8ed4e1ad6046587","1,48762E+12",8,"high",41,4,1,"probablyNot",2826,"high"
"ca1ab928664d782377356797c768710ffe48858273c425efc8ed4e1ad6046587","1,48762E+12",9,"low",82,8,2,"probablyNot",3924,"low"
"c0c0cfa16b5ed1e9d2c77dbc250e4d04a3eba219ca576622c270eb62e15f5b5c","1,48762E+12",1,"none",103,10,3,"probably",10699,"none"
"c0c0cfa16b5ed1e9d2c77dbc250e4d04a3eba219ca576622c270eb62e15f5b5c","1,48762E+12",2,"none",105,10,5,"possibly",5567,"none"
"c0c0cfa16b5ed1e9d2c77dbc250e4d04a3eba219ca576622c270eb62e15f5b5c","1,48762E+12",3,"low",80,8,0,"certainlyNot",4041,"low"
"c0c0cfa16b5ed1e9d2c77dbc250e4d04a3eba219ca576622c270eb62e15f5b5c","1,48762E+12",4,"high",43,4,3,"probably",4548,"high"
"c0c0cfa16b5ed1e9d2c77dbc250e4d04a3eba219ca576622c270eb62e15f5b5c","1,48762E+12",5,"high",22,2,2,"probably",4064,"high"
"c0c0cfa16b5ed1e9d2c77dbc250e4d04a3eba219ca576622c270eb62e15f5b5c","1,48762E+12",6,"low",86,8,6,"probably",2421,"low"
"c0c0cfa16b5ed1e9d2c77dbc250e4d04a3eba219ca576622c270eb62e15f5b5c","1,48762E+12",7,"none",102,10,2,"probablyNot",3547,"none"
"c0c0cfa16b5ed1e9d2c77dbc250e4d04a3eba219ca576622c270eb62e15f5b5c","1,48762E+12",8,"high",41,4,1,"probablyNot",4079,"high"
"c0c0cfa16b5ed1e9d2c77dbc250e4d04a3eba219ca576622c270eb62e15f5b5c","1,48762E+12",9,"low",82,8,2,"probablyNot",6163,"low"
"d99790f6fd0fb1a0349e3c65b24ad8dc9e33f2f990d7048c5c7a12f62b875b51","1,48762E+12",1,"none",105,10,5,"possibly",13952,"none"
"d99790f6fd0fb1a0349e3c65b24ad8dc9e33f2f990d7048c5c7a12f62b875b51","1,48762E+12",2,"low",88,8,8,"probably",5902,"low"
"d99790f6fd0fb1a0349e3c65b24ad8dc9e33f2f990d7048c5c7a12f62b875b51","1,48762E+12",3,"none",103,10,3,"probablyNot",7284,"none"
"d99790f6fd0fb1a0349e3c65b24ad8dc9e33f2f990d7048c5c7a12f62b875b51","1,48762E+12",4,"high",22,2,2,"possibly",6253,"high"
"d99790f6fd0fb1a0349e3c65b24ad8dc9e33f2f990d7048c5c7a12f62b875b51","1,48762E+12",5,"low",84,8,4,"possibly",8246,"low"
"d99790f6fd0fb1a0349e3c65b24ad8dc9e33f2f990d7048c5c7a12f62b875b51","1,48762E+12",6,"low",86,8,6,"probably",8773,"low"
"d99790f6fd0fb1a0349e3c65b24ad8dc9e33f2f990d7048c5c7a12f62b875b51","1,48762E+12",7,"none",107,10,7,"probably",6957,"none"
"d99790f6fd0fb1a0349e3c65b24ad8dc9e33f2f990d7048c5c7a12f62b875b51","1,48762E+12",8,"high",42,4,2,"possibly",5782,"high"
"d99790f6fd0fb1a0349e3c65b24ad8dc9e33f2f990d7048c5c7a12f62b875b51","1,48762E+12",9,"high",20,2,0,"possibly",12221,"high"
"98d4b89b460fee637eb3d2e56f7635787a87f8c2f268a892ce8e71281e96f14e","1,48771E+12",1,"high",43,4,3,"probably",7567,"high"
"98d4b89b460fee637eb3d2e56f7635787a87f8c2f268a892ce8e71281e96f14e","1,48771E+12",2,"low",80,8,0,"certainlyNot",7397,"low"
"98d4b89b460fee637eb3d2e56f7635787a87f8c2f268a892ce8e71281e96f14e","1,48771E+12",3,"low",82,8,2,"probablyNot",6650,"low"
"98d4b89b460fee637eb3d2e56f7635787a87f8c2f268a892ce8e71281e96f14e","1,48771E+12",4,"high",42,4,2,"probablyNot",4244,"high"
"98d4b89b460fee637eb3d2e56f7635787a87f8c2f268a892ce8e71281e96f14e","1,48771E+12",5,"high",41,4,1,"probablyNot",4909,"high"
"98d4b89b460fee637eb3d2e56f7635787a87f8c2f268a892ce8e71281e96f14e","1,48771E+12",6,"none",105,10,5,"possibly",3884,"none"
"98d4b89b460fee637eb3d2e56f7635787a87f8c2f268a892ce8e71281e96f14e","1,48771E+12",7,"none",107,10,7,"probably",3969,"none"
"98d4b89b460fee637eb3d2e56f7635787a87f8c2f268a892ce8e71281e96f14e","1,48771E+12",8,"low",84,8,4,"probably",3343,"low"
"98d4b89b460fee637eb3d2e56f7635787a87f8c2f268a892ce8e71281e96f14e","1,48771E+12",9,"none",102,10,2,"probablyNot",5313,"none"
"7587540f235797220111f3c7e193fe7dd759f021c2a88b9ec6a4b339bdb3a7e8","1,48764E+12",1,"low",86,8,6,"probably",7990,"low"
"7587540f235797220111f3c7e193fe7dd759f021c2a88b9ec6a4b339bdb3a7e8","1,48764E+12",2,"high",20,2,0,"possibly",4209,"high"
"7587540f235797220111f3c7e193fe7dd759f021c2a88b9ec6a4b339bdb3a7e8","1,48764E+12",3,"low",80,8,0,"probablyNot",3523,"low"
"7587540f235797220111f3c7e193fe7dd759f021c2a88b9ec6a4b339bdb3a7e8","1,48764E+12",4,"low",88,8,8,"probably",1975,"low"
"7587540f235797220111f3c7e193fe7dd759f021c2a88b9ec6a4b339bdb3a7e8","1,48764E+12",5,"high",42,4,2,"possibly",2968,"high"
"7587540f235797220111f3c7e193fe7dd759f021c2a88b9ec6a4b339bdb3a7e8","1,48764E+12",6,"none",105,10,5,"possibly",2002,"none"
"7587540f235797220111f3c7e193fe7dd759f021c2a88b9ec6a4b339bdb3a7e8","1,48764E+12",7,"none",108,10,8,"probably",6013,"none"
"7587540f235797220111f3c7e193fe7dd759f021c2a88b9ec6a4b339bdb3a7e8","1,48764E+12",8,"none",103,10,3,"probablyNot",5589,"none"
"7587540f235797220111f3c7e193fe7dd759f021c2a88b9ec6a4b339bdb3a7e8","1,48764E+12",9,"high",43,4,3,"possibly",3069,"high"
"7915d94315a0c0bf5144f6f0690008cfc4f1ea4c37059389191af9cee86b8aed","1,48762E+12",1,"none",102,10,2,"possibly",22663,"none"
"7915d94315a0c0bf5144f6f0690008cfc4f1ea4c37059389191af9cee86b8aed","1,48762E+12",2,"none",108,10,8,"probably",24798,"none"
"7915d94315a0c0bf5144f6f0690008cfc4f1ea4c37059389191af9cee86b8aed","1,48762E+12",3,"low",82,8,2,"probablyNot",12590,"low"
"7915d94315a0c0bf5144f6f0690008cfc4f1ea4c37059389191af9cee86b8aed","1,48762E+12",4,"high",42,4,2,"possibly",6558,"high"
"7915d94315a0c0bf5144f6f0690008cfc4f1ea4c37059389191af9cee86b8aed","1,48762E+12",5,"high",22,2,2,"certainly",8178,"high"
"7915d94315a0c0bf5144f6f0690008cfc4f1ea4c37059389191af9cee86b8aed","1,48762E+12",6,"low",84,8,4,"possibly",9176,"low"
"7915d94315a0c0bf5144f6f0690008cfc4f1ea4c37059389191af9cee86b8aed","1,48762E+12",7,"low",86,8,6,"probably",9521,"low"
"7915d94315a0c0bf5144f6f0690008cfc4f1ea4c37059389191af9cee86b8aed","1,48762E+12",8,"high",43,4,3,"probably",7211,"high"
"7915d94315a0c0bf5144f6f0690008cfc4f1ea4c37059389191af9cee86b8aed","1,48762E+12",9,"none",105,10,5,"possibly",9182,"none"
"c02075f7ef117e4784a141c39605852c99c874459a20b14f22b6c4a884114662","1,48762E+12",1,"none",108,10,8,"certainly",11898,"none"
"c02075f7ef117e4784a141c39605852c99c874459a20b14f22b6c4a884114662","1,48762E+12",2,"high",41,4,1,"certainlyNot",7354,"high"
"c02075f7ef117e4784a141c39605852c99c874459a20b14f22b6c4a884114662","1,48762E+12",3,"high",22,2,2,"probably",9638,"high"
"c02075f7ef117e4784a141c39605852c99c874459a20b14f22b6c4a884114662","1,48762E+12",4,"low",88,8,8,"certainly",6901,"low"
"c02075f7ef117e4784a141c39605852c99c874459a20b14f22b6c4a884114662","1,48762E+12",5,"low",84,8,4,"possibly",9360,"low"
"c02075f7ef117e4784a141c39605852c99c874459a20b14f22b6c4a884114662","1,48762E+12",6,"none",105,10,5,"possibly",12300,"none"
"c02075f7ef117e4784a141c39605852c99c874459a20b14f22b6c4a884114662","1,48762E+12",7,"high",20,2,0,"possibly",6425,"high"
"c02075f7ef117e4784a141c39605852c99c874459a20b14f22b6c4a884114662","1,48762E+12",8,"none",107,10,7,"probably",5758,"none"
"c02075f7ef117e4784a141c39605852c99c874459a20b14f22b6c4a884114662","1,48762E+12",9,"low",80,8,0,"probablyNot",4456,"low"
"2f45df7654754d54deb0359b49b52db654857e3ab84f01003cf6d75d870eb96e","1,48763E+12",1,"high",42,4,2,"possibly",19589,"high"
"2f45df7654754d54deb0359b49b52db654857e3ab84f01003cf6d75d870eb96e","1,48763E+12",2,"high",22,2,2,"probablyNot",6100,"high"
"2f45df7654754d54deb0359b49b52db654857e3ab84f01003cf6d75d870eb96e","1,48763E+12",3,"low",84,8,4,"possibly",6678,"low"
"2f45df7654754d54deb0359b49b52db654857e3ab84f01003cf6d75d870eb96e","1,48763E+12",4,"none",108,10,8,"certainly",4948,"none"
"2f45df7654754d54deb0359b49b52db654857e3ab84f01003cf6d75d870eb96e","1,48763E+12",5,"low",82,8,2,"probablyNot",7789,"low"
"2f45df7654754d54deb0359b49b52db654857e3ab84f01003cf6d75d870eb96e","1,48763E+12",6,"low",88,8,8,"certainly",6108,"low"
"2f45df7654754d54deb0359b49b52db654857e3ab84f01003cf6d75d870eb96e","1,48763E+12",7,"none",107,10,7,"certainly",5790,"none"
"2f45df7654754d54deb0359b49b52db654857e3ab84f01003cf6d75d870eb96e","1,48763E+12",8,"none",102,10,2,"possibly",3726,"none"
"2f45df7654754d54deb0359b49b52db654857e3ab84f01003cf6d75d870eb96e","1,48763E+12",9,"high",43,4,3,"probably",7063,"high"
"f809675416f0db7a8d18151e41629c022f77d8cf18e815e17707ebf0ba6aaed8","1,48763E+12",1,"none",105,10,5,"possibly",8444,"none"
"f809675416f0db7a8d18151e41629c022f77d8cf18e815e17707ebf0ba6aaed8","1,48763E+12",2,"high",43,4,3,"possibly",10968,"high"
"f809675416f0db7a8d18151e41629c022f77d8cf18e815e17707ebf0ba6aaed8","1,48763E+12",3,"low",82,8,2,"probablyNot",8353,"low"
"f809675416f0db7a8d18151e41629c022f77d8cf18e815e17707ebf0ba6aaed8","1,48763E+12",4,"none",102,10,2,"probablyNot",10743,"none"
"f809675416f0db7a8d18151e41629c022f77d8cf18e815e17707ebf0ba6aaed8","1,48763E+12",5,"high",41,4,1,"probablyNot",4960,"high"
"f809675416f0db7a8d18151e41629c022f77d8cf18e815e17707ebf0ba6aaed8","1,48763E+12",6,"high",42,4,2,"possibly",4022,"high"
"f809675416f0db7a8d18151e41629c022f77d8cf18e815e17707ebf0ba6aaed8","1,48763E+12",7,"low",88,8,8,"certainly",12883,"low"
"f809675416f0db7a8d18151e41629c022f77d8cf18e815e17707ebf0ba6aaed8","1,48763E+12",8,"low",86,8,6,"probably",4558,"low"
"f809675416f0db7a8d18151e41629c022f77d8cf18e815e17707ebf0ba6aaed8","1,48763E+12",9,"none",108,10,8,"probably",14034,"none"
"f0a3392d304d00ab2529980a7282a3a85c702e3b8a8d350725ce3967e4f7a58b","1,48762E+12",1,"high",22,2,2,"certainly",17892,"high"
"f0a3392d304d00ab2529980a7282a3a85c702e3b8a8d350725ce3967e4f7a58b","1,48762E+12",2,"low",80,8,0,"probablyNot",16570,"low"
"f0a3392d304d00ab2529980a7282a3a85c702e3b8a8d350725ce3967e4f7a58b","1,48762E+12",3,"low",86,8,6,"possibly",7966,"low"
"f0a3392d304d00ab2529980a7282a3a85c702e3b8a8d350725ce3967e4f7a58b","1,48762E+12",4,"high",42,4,2,"possibly",7654,"high"
"f0a3392d304d00ab2529980a7282a3a85c702e3b8a8d350725ce3967e4f7a58b","1,48762E+12",5,"high",41,4,1,"possibly",18340,"high"
"f0a3392d304d00ab2529980a7282a3a85c702e3b8a8d350725ce3967e4f7a58b","1,48762E+12",6,"low",82,8,2,"probablyNot",7144,"low"
"f0a3392d304d00ab2529980a7282a3a85c702e3b8a8d350725ce3967e4f7a58b","1,48762E+12",7,"none",108,10,8,"probably",4934,"none"
"f0a3392d304d00ab2529980a7282a3a85c702e3b8a8d350725ce3967e4f7a58b","1,48762E+12",8,"none",107,10,7,"certainly",3771,"none"
"f0a3392d304d00ab2529980a7282a3a85c702e3b8a8d350725ce3967e4f7a58b","1,48762E+12",9,"none",102,10,2,"probablyNot",5692,"none"
"500c36a8fa682cfe0ea33626cd679b1c0e9db3a75e1a0b6d26d223560255a50f","1,48762E+12",1,"none",105,10,5,"possibly",12951,"none"
"500c36a8fa682cfe0ea33626cd679b1c0e9db3a75e1a0b6d26d223560255a50f","1,48762E+12",2,"high",22,2,2,"probably",6377,"high"
"500c36a8fa682cfe0ea33626cd679b1c0e9db3a75e1a0b6d26d223560255a50f","1,48762E+12",3,"low",82,8,2,"probablyNot",2605,"low"
"500c36a8fa682cfe0ea33626cd679b1c0e9db3a75e1a0b6d26d223560255a50f","1,48762E+12",4,"low",80,8,0,"certainlyNot",3486,"low"
"500c36a8fa682cfe0ea33626cd679b1c0e9db3a75e1a0b6d26d223560255a50f","1,48762E+12",5,"high",43,4,3,"possibly",4746,"high"
"500c36a8fa682cfe0ea33626cd679b1c0e9db3a75e1a0b6d26d223560255a50f","1,48762E+12",6,"low",84,8,4,"possibly",4178,"low"
"500c36a8fa682cfe0ea33626cd679b1c0e9db3a75e1a0b6d26d223560255a50f","1,48762E+12",7,"high",20,2,0,"probablyNot",3903,"high"
"500c36a8fa682cfe0ea33626cd679b1c0e9db3a75e1a0b6d26d223560255a50f","1,48762E+12",8,"none",103,10,3,"certainlyNot",8105,"none"
"500c36a8fa682cfe0ea33626cd679b1c0e9db3a75e1a0b6d26d223560255a50f","1,48762E+12",9,"none",107,10,7,"probably",4916,"none"
"d74e57578142225d419f2edac637e1d043ad1494675e9149831eef5d422333cb","1,48771E+12",1,"none",103,10,3,"possibly",11233,"none"
"d74e57578142225d419f2edac637e1d043ad1494675e9149831eef5d422333cb","1,48771E+12",2,"low",84,8,4,"possibly",8896,"low"
"d74e57578142225d419f2edac637e1d043ad1494675e9149831eef5d422333cb","1,48771E+12",3,"none",102,10,2,"probablyNot",3892,"none"
"d74e57578142225d419f2edac637e1d043ad1494675e9149831eef5d422333cb","1,48771E+12",4,"high",42,4,2,"possibly",4153,"high"
"d74e57578142225d419f2edac637e1d043ad1494675e9149831eef5d422333cb","1,48771E+12",5,"high",20,2,0,"certainlyNot",3396,"high"
"d74e57578142225d419f2edac637e1d043ad1494675e9149831eef5d422333cb","1,48771E+12",6,"high",43,4,3,"probably",5254,"high"
"d74e57578142225d419f2edac637e1d043ad1494675e9149831eef5d422333cb","1,48771E+12",7,"low",80,8,0,"certainlyNot",3313,"low"
"d74e57578142225d419f2edac637e1d043ad1494675e9149831eef5d422333cb","1,48771E+12",8,"low",86,8,6,"probably",5486,"low"
"d74e57578142225d419f2edac637e1d043ad1494675e9149831eef5d422333cb","1,48771E+12",9,"none",108,10,8,"probably",3926,"none"
"58b21e06a6a8b60a06cf97a9a3387acc81cebfcfd2ae0096e5f9b8c33ce75e4e","1,48762E+12",1,"low",84,8,4,"possibly",13393,"low"
"58b21e06a6a8b60a06cf97a9a3387acc81cebfcfd2ae0096e5f9b8c33ce75e4e","1,48762E+12",2,"low",86,8,6,"probably",4708,"low"
"58b21e06a6a8b60a06cf97a9a3387acc81cebfcfd2ae0096e5f9b8c33ce75e4e","1,48762E+12",3,"none",103,10,3,"probablyNot",8142,"none"
"58b21e06a6a8b60a06cf97a9a3387acc81cebfcfd2ae0096e5f9b8c33ce75e4e","1,48762E+12",4,"high",42,4,2,"possibly",3732,"high"
"58b21e06a6a8b60a06cf97a9a3387acc81cebfcfd2ae0096e5f9b8c33ce75e4e","1,48762E+12",5,"high",22,2,2,"possibly",5092,"high"
"58b21e06a6a8b60a06cf97a9a3387acc81cebfcfd2ae0096e5f9b8c33ce75e4e","1,48762E+12",6,"none",108,10,8,"probably",8859,"none"
"58b21e06a6a8b60a06cf97a9a3387acc81cebfcfd2ae0096e5f9b8c33ce75e4e","1,48762E+12",7,"low",80,8,0,"probablyNot",4545,"low"
"58b21e06a6a8b60a06cf97a9a3387acc81cebfcfd2ae0096e5f9b8c33ce75e4e","1,48762E+12",8,"high",41,4,1,"possibly",5645,"high"
"58b21e06a6a8b60a06cf97a9a3387acc81cebfcfd2ae0096e5f9b8c33ce75e4e","1,48762E+12",9,"none",102,10,2,"probablyNot",3081,"none"
"52119bc0e26da989a7050c41d2ae9d1933df9d8a270183ac0ef39fd556e0b20b","1,48771E+12",1,"low",86,8,6,"probably",8915,"low"
"52119bc0e26da989a7050c41d2ae9d1933df9d8a270183ac0ef39fd556e0b20b","1,48771E+12",2,"none",103,10,3,"probablyNot",7999,"none"
"52119bc0e26da989a7050c41d2ae9d1933df9d8a270183ac0ef39fd556e0b20b","1,48771E+12",3,"none",107,10,7,"probably",5106,"none"
"52119bc0e26da989a7050c41d2ae9d1933df9d8a270183ac0ef39fd556e0b20b","1,48771E+12",4,"high",22,2,2,"possibly",6960,"high"
"52119bc0e26da989a7050c41d2ae9d1933df9d8a270183ac0ef39fd556e0b20b","1,48771E+12",5,"low",84,8,4,"possibly",4470,"low"
"52119bc0e26da989a7050c41d2ae9d1933df9d8a270183ac0ef39fd556e0b20b","1,48771E+12",6,"high",41,4,1,"probablyNot",6148,"high"
"52119bc0e26da989a7050c41d2ae9d1933df9d8a270183ac0ef39fd556e0b20b","1,48771E+12",7,"low",88,8,8,"probably",7915,"low"
"52119bc0e26da989a7050c41d2ae9d1933df9d8a270183ac0ef39fd556e0b20b","1,48771E+12",8,"high",42,4,2,"possibly",5254,"high"
"52119bc0e26da989a7050c41d2ae9d1933df9d8a270183ac0ef39fd556e0b20b","1,48771E+12",9,"none",102,10,2,"probablyNot",5442,"none"
"674751548de5d7b2dc74eb8fc17359ea616c21fd2bafea2508293eabfe4c297e","1,48772E+12",1,"high",42,4,2,"possibly",8933,"high"
"674751548de5d7b2dc74eb8fc17359ea616c21fd2bafea2508293eabfe4c297e","1,48772E+12",2,"high",41,4,1,"probablyNot",6744,"high"
"674751548de5d7b2dc74eb8fc17359ea616c21fd2bafea2508293eabfe4c297e","1,48772E+12",3,"none",103,10,3,"probablyNot",10329,"none"
"674751548de5d7b2dc74eb8fc17359ea616c21fd2bafea2508293eabfe4c297e","1,48772E+12",4,"low",88,8,8,"probably",6727,"low"
"674751548de5d7b2dc74eb8fc17359ea616c21fd2bafea2508293eabfe4c297e","1,48772E+12",5,"high",43,4,3,"probably",3401,"high"
"674751548de5d7b2dc74eb8fc17359ea616c21fd2bafea2508293eabfe4c297e","1,48772E+12",6,"low",84,8,4,"possibly",5295,"low"
"674751548de5d7b2dc74eb8fc17359ea616c21fd2bafea2508293eabfe4c297e","1,48772E+12",7,"none",105,10,5,"possibly",3795,"none"
"674751548de5d7b2dc74eb8fc17359ea616c21fd2bafea2508293eabfe4c297e","1,48772E+12",8,"low",82,8,2,"probablyNot",5035,"low"
"674751548de5d7b2dc74eb8fc17359ea616c21fd2bafea2508293eabfe4c297e","1,48772E+12",9,"none",107,10,7,"probably",5350,"none"
"c3ac747b15bf4c8077463c246f918d614d68ed83b4a799004674535203af0918","1,48771E+12",1,"high",43,4,3,"probably",10201,"high"
"c3ac747b15bf4c8077463c246f918d614d68ed83b4a799004674535203af0918","1,48771E+12",2,"low",80,8,0,"certainlyNot",7534,"low"
"c3ac747b15bf4c8077463c246f918d614d68ed83b4a799004674535203af0918","1,48771E+12",3,"none",107,10,7,"probably",9312,"none"
"c3ac747b15bf4c8077463c246f918d614d68ed83b4a799004674535203af0918","1,48771E+12",4,"high",42,4,2,"possibly",6805,"high"
"c3ac747b15bf4c8077463c246f918d614d68ed83b4a799004674535203af0918","1,48771E+12",5,"low",82,8,2,"probablyNot",4917,"low"
"c3ac747b15bf4c8077463c246f918d614d68ed83b4a799004674535203af0918","1,48771E+12",6,"none",105,10,5,"certainlyNot",6460,"none"
"c3ac747b15bf4c8077463c246f918d614d68ed83b4a799004674535203af0918","1,48771E+12",7,"high",20,2,0,"possibly",6748,"high"
"c3ac747b15bf4c8077463c246f918d614d68ed83b4a799004674535203af0918","1,48771E+12",8,"none",103,10,3,"certainlyNot",5547,"none"
"c3ac747b15bf4c8077463c246f918d614d68ed83b4a799004674535203af0918","1,48771E+12",9,"low",86,8,6,"possibly",5463,"low"
"3320640f80d3a28c41a256ca3daf1aa0db147ffae1e4f463641e394dcd8b1b44","1,48771E+12",1,"low",80,8,0,"probablyNot",12460,"low"
"3320640f80d3a28c41a256ca3daf1aa0db147ffae1e4f463641e394dcd8b1b44","1,48771E+12",2,"none",105,10,5,"possibly",5078,"none"
"3320640f80d3a28c41a256ca3daf1aa0db147ffae1e4f463641e394dcd8b1b44","1,48771E+12",3,"low",86,8,6,"probably",6291,"low"
"3320640f80d3a28c41a256ca3daf1aa0db147ffae1e4f463641e394dcd8b1b44","1,48771E+12",4,"low",84,8,4,"possibly",4170,"low"
"3320640f80d3a28c41a256ca3daf1aa0db147ffae1e4f463641e394dcd8b1b44","1,48771E+12",5,"high",20,2,0,"possibly",9228,"high"
"3320640f80d3a28c41a256ca3daf1aa0db147ffae1e4f463641e394dcd8b1b44","1,48771E+12",6,"none",103,10,3,"probablyNot",6011,"none"
"3320640f80d3a28c41a256ca3daf1aa0db147ffae1e4f463641e394dcd8b1b44","1,48771E+12",7,"none",102,10,2,"probablyNot",4486,"none"
"3320640f80d3a28c41a256ca3daf1aa0db147ffae1e4f463641e394dcd8b1b44","1,48771E+12",8,"high",43,4,3,"probably",3866,"high"
"3320640f80d3a28c41a256ca3daf1aa0db147ffae1e4f463641e394dcd8b1b44","1,48771E+12",9,"high",42,4,2,"possibly",14195,"high"
"ebc7e4b6e0c8da39e0098ba5f72b578e3c27d2fd971248fb01b487203d75cd0f","1,48779E+12",1,"high",20,2,0,"possibly",9056,"high"
"ebc7e4b6e0c8da39e0098ba5f72b578e3c27d2fd971248fb01b487203d75cd0f","1,48779E+12",2,"high",43,4,3,"possibly",7034,"high"
"ebc7e4b6e0c8da39e0098ba5f72b578e3c27d2fd971248fb01b487203d75cd0f","1,48779E+12",3,"none",105,10,5,"possibly",7405,"none"
"ebc7e4b6e0c8da39e0098ba5f72b578e3c27d2fd971248fb01b487203d75cd0f","1,48779E+12",4,"low",86,8,6,"probably",4613,"low"
"ebc7e4b6e0c8da39e0098ba5f72b578e3c27d2fd971248fb01b487203d75cd0f","1,48779E+12",5,"none",103,10,3,"probablyNot",5289,"none"
"ebc7e4b6e0c8da39e0098ba5f72b578e3c27d2fd971248fb01b487203d75cd0f","1,48779E+12",6,"low",84,8,4,"possibly",6107,"low"
"ebc7e4b6e0c8da39e0098ba5f72b578e3c27d2fd971248fb01b487203d75cd0f","1,48779E+12",7,"low",82,8,2,"probablyNot",4602,"low"
"ebc7e4b6e0c8da39e0098ba5f72b578e3c27d2fd971248fb01b487203d75cd0f","1,48779E+12",8,"none",107,10,7,"probably",2812,"none"
"ebc7e4b6e0c8da39e0098ba5f72b578e3c27d2fd971248fb01b487203d75cd0f","1,48779E+12",9,"high",41,4,1,"possibly",3058,"high"
"601b7758859f2c1d6671988e78218b38bea0241b60e51b6efa2ac7509883201a","1,48771E+12",1,"none",103,10,3,"possibly",21698,"none"
"601b7758859f2c1d6671988e78218b38bea0241b60e51b6efa2ac7509883201a","1,48771E+12",2,"none",108,10,8,"probably",8950,"none"
"601b7758859f2c1d6671988e78218b38bea0241b60e51b6efa2ac7509883201a","1,48771E+12",3,"high",42,4,2,"possibly",6386,"high"
"601b7758859f2c1d6671988e78218b38bea0241b60e51b6efa2ac7509883201a","1,48771E+12",4,"low",86,8,6,"probably",4865,"low"
"601b7758859f2c1d6671988e78218b38bea0241b60e51b6efa2ac7509883201a","1,48771E+12",5,"high",20,2,0,"certainlyNot",5641,"high"
"601b7758859f2c1d6671988e78218b38bea0241b60e51b6efa2ac7509883201a","1,48771E+12",6,"low",84,8,4,"probably",3777,"low"
"601b7758859f2c1d6671988e78218b38bea0241b60e51b6efa2ac7509883201a","1,48771E+12",7,"low",80,8,0,"certainlyNot",3236,"low"
"601b7758859f2c1d6671988e78218b38bea0241b60e51b6efa2ac7509883201a","1,48771E+12",8,"none",105,10,5,"probably",7134,"none"
"601b7758859f2c1d6671988e78218b38bea0241b60e51b6efa2ac7509883201a","1,48771E+12",9,"high",22,2,2,"certainly",5035,"high"
"f3192eed28f44523b15066c1e7790b72be30ed5d2e4ab814cbc0296df7441d62","1,48778E+12",1,"none",102,10,2,"probablyNot",16188,"none"
"f3192eed28f44523b15066c1e7790b72be30ed5d2e4ab814cbc0296df7441d62","1,48778E+12",2,"low",88,8,8,"certainly",22374,"low"
"f3192eed28f44523b15066c1e7790b72be30ed5d2e4ab814cbc0296df7441d62","1,48778E+12",3,"low",86,8,6,"probably",10819,"low"
"f3192eed28f44523b15066c1e7790b72be30ed5d2e4ab814cbc0296df7441d62","1,48778E+12",4,"high",42,4,2,"possibly",18063,"high"
"f3192eed28f44523b15066c1e7790b72be30ed5d2e4ab814cbc0296df7441d62","1,48778E+12",5,"none",108,10,8,"probably",8022,"none"
"f3192eed28f44523b15066c1e7790b72be30ed5d2e4ab814cbc0296df7441d62","1,48778E+12",6,"low",82,8,2,"probablyNot",7093,"low"
"f3192eed28f44523b15066c1e7790b72be30ed5d2e4ab814cbc0296df7441d62","1,48778E+12",7,"high",43,4,3,"possibly",7445,"high"
"f3192eed28f44523b15066c1e7790b72be30ed5d2e4ab814cbc0296df7441d62","1,48778E+12",8,"none",107,10,7,"probably",6479,"none"
"f3192eed28f44523b15066c1e7790b72be30ed5d2e4ab814cbc0296df7441d62","1,48778E+12",9,"high",20,2,0,"possibly",4630,"high"
"591fb0ff81ae3134fcdf2631f3e9ab9ac51f08a44dbf31cebd143414d4ba6625","1,48772E+12",1,"none",108,10,8,"certainly",6278,"none"
"591fb0ff81ae3134fcdf2631f3e9ab9ac51f08a44dbf31cebd143414d4ba6625","1,48772E+12",2,"high",42,4,2,"possibly",3571,"high"
"591fb0ff81ae3134fcdf2631f3e9ab9ac51f08a44dbf31cebd143414d4ba6625","1,48772E+12",3,"none",105,10,5,"possibly",2614,"none"
"591fb0ff81ae3134fcdf2631f3e9ab9ac51f08a44dbf31cebd143414d4ba6625","1,48772E+12",4,"high",43,4,3,"certainly",3707,"high"
"591fb0ff81ae3134fcdf2631f3e9ab9ac51f08a44dbf31cebd143414d4ba6625","1,48772E+12",5,"high",20,2,0,"probably",4797,"high"
"591fb0ff81ae3134fcdf2631f3e9ab9ac51f08a44dbf31cebd143414d4ba6625","1,48772E+12",6,"low",88,8,8,"certainly",2812,"low"
"591fb0ff81ae3134fcdf2631f3e9ab9ac51f08a44dbf31cebd143414d4ba6625","1,48772E+12",7,"low",82,8,2,"probablyNot",4767,"low"
"591fb0ff81ae3134fcdf2631f3e9ab9ac51f08a44dbf31cebd143414d4ba6625","1,48772E+12",8,"low",80,8,0,"certainlyNot",3433,"low"
"591fb0ff81ae3134fcdf2631f3e9ab9ac51f08a44dbf31cebd143414d4ba6625","1,48772E+12",9,"none",107,10,7,"probably",4146,"none"
"c1c426d574e33b41e8ddd24cf15d41233315e9aa2428e4b2571973fcdc285e69","1,48772E+12",1,"none",108,10,8,"certainly",11938,"none"
"c1c426d574e33b41e8ddd24cf15d41233315e9aa2428e4b2571973fcdc285e69","1,48772E+12",2,"high",20,2,0,"probablyNot",9977,"high"
"c1c426d574e33b41e8ddd24cf15d41233315e9aa2428e4b2571973fcdc285e69","1,48772E+12",3,"none",102,10,2,"probably",11350,"none"
"c1c426d574e33b41e8ddd24cf15d41233315e9aa2428e4b2571973fcdc285e69","1,48772E+12",4,"low",80,8,0,"probablyNot",5489,"low"
"c1c426d574e33b41e8ddd24cf15d41233315e9aa2428e4b2571973fcdc285e69","1,48772E+12",5,"low",84,8,4,"possibly",4927,"low"
"c1c426d574e33b41e8ddd24cf15d41233315e9aa2428e4b2571973fcdc285e69","1,48772E+12",6,"high",42,4,2,"possibly",5343,"high"
"c1c426d574e33b41e8ddd24cf15d41233315e9aa2428e4b2571973fcdc285e69","1,48772E+12",7,"high",43,4,3,"probably",4645,"high"
"c1c426d574e33b41e8ddd24cf15d41233315e9aa2428e4b2571973fcdc285e69","1,48772E+12",8,"none",105,10,5,"possibly",3880,"none"
"c1c426d574e33b41e8ddd24cf15d41233315e9aa2428e4b2571973fcdc285e69","1,48772E+12",9,"low",82,8,2,"probablyNot",3811,"low"
"1ffdb2fe53083f2d4ae4e7d2af3931072b7506d8db8921ec7a36adae1519ca2f","1,48771E+12",1,"none",107,10,7,"probably",10461,"none"
"1ffdb2fe53083f2d4ae4e7d2af3931072b7506d8db8921ec7a36adae1519ca2f","1,48771E+12",2,"low",82,8,2,"certainlyNot",7876,"low"
"1ffdb2fe53083f2d4ae4e7d2af3931072b7506d8db8921ec7a36adae1519ca2f","1,48771E+12",3,"none",102,10,2,"certainlyNot",11052,"none"
"1ffdb2fe53083f2d4ae4e7d2af3931072b7506d8db8921ec7a36adae1519ca2f","1,48771E+12",4,"none",105,10,5,"possibly",4038,"none"
"1ffdb2fe53083f2d4ae4e7d2af3931072b7506d8db8921ec7a36adae1519ca2f","1,48771E+12",5,"high",43,4,3,"probablyNot",7264,"high"
"1ffdb2fe53083f2d4ae4e7d2af3931072b7506d8db8921ec7a36adae1519ca2f","1,48771E+12",6,"high",20,2,0,"probablyNot",6154,"high"
"1ffdb2fe53083f2d4ae4e7d2af3931072b7506d8db8921ec7a36adae1519ca2f","1,48771E+12",7,"low",86,8,6,"probably",5314,"low"
"1ffdb2fe53083f2d4ae4e7d2af3931072b7506d8db8921ec7a36adae1519ca2f","1,48771E+12",8,"low",80,8,0,"probably",4769,"low"
"1ffdb2fe53083f2d4ae4e7d2af3931072b7506d8db8921ec7a36adae1519ca2f","1,48771E+12",9,"high",41,4,1,"probablyNot",5832,"high"
"b95c7bbf09d6f4a69eae62ba0db63e12d434889df8b50a852fed5ca74a203055","1,48775E+12",1,"none",108,10,8,"probably",10393,"none"
"b95c7bbf09d6f4a69eae62ba0db63e12d434889df8b50a852fed5ca74a203055","1,48775E+12",2,"high",41,4,1,"probablyNot",5091,"high"
"b95c7bbf09d6f4a69eae62ba0db63e12d434889df8b50a852fed5ca74a203055","1,48775E+12",3,"none",107,10,7,"probably",7191,"none"
"b95c7bbf09d6f4a69eae62ba0db63e12d434889df8b50a852fed5ca74a203055","1,48775E+12",4,"low",80,8,0,"certainlyNot",4920,"low"
"b95c7bbf09d6f4a69eae62ba0db63e12d434889df8b50a852fed5ca74a203055","1,48775E+12",5,"low",88,8,8,"certainly",3581,"low"
"b95c7bbf09d6f4a69eae62ba0db63e12d434889df8b50a852fed5ca74a203055","1,48775E+12",6,"high",20,2,0,"probablyNot",7194,"high"
"b95c7bbf09d6f4a69eae62ba0db63e12d434889df8b50a852fed5ca74a203055","1,48775E+12",7,"high",43,4,3,"probably",5098,"high"
"b95c7bbf09d6f4a69eae62ba0db63e12d434889df8b50a852fed5ca74a203055","1,48775E+12",8,"none",105,10,5,"possibly",6723,"none"
"b95c7bbf09d6f4a69eae62ba0db63e12d434889df8b50a852fed5ca74a203055","1,48775E+12",9,"low",84,8,4,"possibly",4513,"low"
"3da159d2ec567605aa234eeaa74b309989d1bc7aaa312fbb6b618870dedbca24","1,48774E+12",1,"high",42,4,2,"possibly",16302,"high"
"3da159d2ec567605aa234eeaa74b309989d1bc7aaa312fbb6b618870dedbca24","1,48774E+12",2,"none",107,10,7,"probably",11541,"none"
"3da159d2ec567605aa234eeaa74b309989d1bc7aaa312fbb6b618870dedbca24","1,48774E+12",3,"none",102,10,2,"probablyNot",7576,"none"
"3da159d2ec567605aa234eeaa74b309989d1bc7aaa312fbb6b618870dedbca24","1,48774E+12",4,"low",84,8,4,"possibly",7366,"low"
"3da159d2ec567605aa234eeaa74b309989d1bc7aaa312fbb6b618870dedbca24","1,48774E+12",5,"high",22,2,2,"probably",7685,"high"
"3da159d2ec567605aa234eeaa74b309989d1bc7aaa312fbb6b618870dedbca24","1,48774E+12",6,"none",103,10,3,"probably",5604,"none"
"3da159d2ec567605aa234eeaa74b309989d1bc7aaa312fbb6b618870dedbca24","1,48774E+12",7,"high",43,4,3,"probably",5724,"high"
"3da159d2ec567605aa234eeaa74b309989d1bc7aaa312fbb6b618870dedbca24","1,48774E+12",8,"low",88,8,8,"certainly",3620,"low"
"3da159d2ec567605aa234eeaa74b309989d1bc7aaa312fbb6b618870dedbca24","1,48774E+12",9,"low",86,8,6,"probably",2880,"low"
"8c520eccb475004c63244ee3da2daa2ef45a11f73f7c5b79ce639bf7eeeb6c22","1,48771E+12",1,"none",105,10,5,"possibly",8985,"none"
"8c520eccb475004c63244ee3da2daa2ef45a11f73f7c5b79ce639bf7eeeb6c22","1,48771E+12",2,"high",22,2,2,"possibly",6568,"high"
"8c520eccb475004c63244ee3da2daa2ef45a11f73f7c5b79ce639bf7eeeb6c22","1,48771E+12",3,"high",20,2,0,"probablyNot",6286,"high"
"8c520eccb475004c63244ee3da2daa2ef45a11f73f7c5b79ce639bf7eeeb6c22","1,48771E+12",4,"none",108,10,8,"probably",4746,"none"
"8c520eccb475004c63244ee3da2daa2ef45a11f73f7c5b79ce639bf7eeeb6c22","1,48771E+12",5,"low",86,8,6,"probably",4276,"low"
"8c520eccb475004c63244ee3da2daa2ef45a11f73f7c5b79ce639bf7eeeb6c22","1,48771E+12",6,"high",42,4,2,"possibly",2648,"high"
"8c520eccb475004c63244ee3da2daa2ef45a11f73f7c5b79ce639bf7eeeb6c22","1,48771E+12",7,"low",82,8,2,"probablyNot",3742,"low"
"8c520eccb475004c63244ee3da2daa2ef45a11f73f7c5b79ce639bf7eeeb6c22","1,48771E+12",8,"none",103,10,3,"probablyNot",3172,"none"
"8c520eccb475004c63244ee3da2daa2ef45a11f73f7c5b79ce639bf7eeeb6c22","1,48771E+12",9,"low",88,8,8,"possibly",9038,"low"
"59b1a5778ce19ceb6ee625529802cc69b37638ce169d2d1097d980790824a09e","1,48777E+12",1,"low",80,8,0,"probablyNot",12826,"low"
"59b1a5778ce19ceb6ee625529802cc69b37638ce169d2d1097d980790824a09e","1,48777E+12",2,"high",43,4,3,"probably",15888,"high"
"59b1a5778ce19ceb6ee625529802cc69b37638ce169d2d1097d980790824a09e","1,48777E+12",3,"low",82,8,2,"probablyNot",4537,"low"
"59b1a5778ce19ceb6ee625529802cc69b37638ce169d2d1097d980790824a09e","1,48777E+12",4,"none",105,10,5,"possibly",6127,"none"
"59b1a5778ce19ceb6ee625529802cc69b37638ce169d2d1097d980790824a09e","1,48777E+12",5,"high",20,2,0,"possibly",6511,"high"
"59b1a5778ce19ceb6ee625529802cc69b37638ce169d2d1097d980790824a09e","1,48777E+12",6,"low",88,8,8,"probably",6140,"low"
"59b1a5778ce19ceb6ee625529802cc69b37638ce169d2d1097d980790824a09e","1,48777E+12",7,"none",107,10,7,"probably",8035,"none"
"59b1a5778ce19ceb6ee625529802cc69b37638ce169d2d1097d980790824a09e","1,48777E+12",8,"none",103,10,3,"probablyNot",6143,"none"
"59b1a5778ce19ceb6ee625529802cc69b37638ce169d2d1097d980790824a09e","1,48777E+12",9,"high",42,4,2,"possibly",4600,"high"
"c731e8472cad6d938dcf7edbaa22679a1755a29e693792503961d540e75b1757","1,48772E+12",1,"none",105,10,5,"possibly",16736,"none"
"c731e8472cad6d938dcf7edbaa22679a1755a29e693792503961d540e75b1757","1,48772E+12",2,"high",41,4,1,"probablyNot",20046,"high"
"c731e8472cad6d938dcf7edbaa22679a1755a29e693792503961d540e75b1757","1,48772E+12",3,"low",88,8,8,"probably",10195,"low"
"c731e8472cad6d938dcf7edbaa22679a1755a29e693792503961d540e75b1757","1,48772E+12",4,"none",108,10,8,"probably",11015,"none"
"c731e8472cad6d938dcf7edbaa22679a1755a29e693792503961d540e75b1757","1,48772E+12",5,"none",103,10,3,"probablyNot",8541,"none"
"c731e8472cad6d938dcf7edbaa22679a1755a29e693792503961d540e75b1757","1,48772E+12",6,"high",43,4,3,"probably",8558,"high"
"c731e8472cad6d938dcf7edbaa22679a1755a29e693792503961d540e75b1757","1,48772E+12",7,"high",42,4,2,"possibly",6102,"high"
"c731e8472cad6d938dcf7edbaa22679a1755a29e693792503961d540e75b1757","1,48772E+12",8,"low",86,8,6,"probably",3751,"low"
"c731e8472cad6d938dcf7edbaa22679a1755a29e693792503961d540e75b1757","1,48772E+12",9,"low",80,8,0,"probablyNot",4851,"low"
"f57928d415c4e1cc39cb130e9b5190a482315fa595d86cf74f8be629a6363b12","1,48771E+12",1,"low",84,8,4,"possibly",2080,"low"
"f57928d415c4e1cc39cb130e9b5190a482315fa595d86cf74f8be629a6363b12","1,48771E+12",2,"none",105,10,5,"certainlyNot",1583,"none"
"f57928d415c4e1cc39cb130e9b5190a482315fa595d86cf74f8be629a6363b12","1,48771E+12",3,"high",41,4,1,"certainlyNot",3117,"high"
"f57928d415c4e1cc39cb130e9b5190a482315fa595d86cf74f8be629a6363b12","1,48771E+12",4,"low",88,8,8,"possibly",1434,"low"
"f57928d415c4e1cc39cb130e9b5190a482315fa595d86cf74f8be629a6363b12","1,48771E+12",5,"high",20,2,0,"possibly",1435,"high"
"f57928d415c4e1cc39cb130e9b5190a482315fa595d86cf74f8be629a6363b12","1,48771E+12",6,"low",82,8,2,"possibly",1306,"low"
"f57928d415c4e1cc39cb130e9b5190a482315fa595d86cf74f8be629a6363b12","1,48771E+12",7,"none",103,10,3,"possibly",1390,"none"
"f57928d415c4e1cc39cb130e9b5190a482315fa595d86cf74f8be629a6363b12","1,48771E+12",8,"none",102,10,2,"probablyNot",1370,"none"
"f57928d415c4e1cc39cb130e9b5190a482315fa595d86cf74f8be629a6363b12","1,48771E+12",9,"high",42,4,2,"probablyNot",1331,"high"
"96c9486a1a00d25590150d8b59ceaf0e16257150dd8885077e5dae157f518dda","1,48771E+12",1,"low",86,8,6,"certainly",2347,"low"
"96c9486a1a00d25590150d8b59ceaf0e16257150dd8885077e5dae157f518dda","1,48771E+12",2,"low",84,8,4,"probably",1245,"low"
"96c9486a1a00d25590150d8b59ceaf0e16257150dd8885077e5dae157f518dda","1,48771E+12",3,"none",105,10,5,"probably",1045,"none"
"96c9486a1a00d25590150d8b59ceaf0e16257150dd8885077e5dae157f518dda","1,48771E+12",4,"high",43,4,3,"probablyNot",1167,"high"
"96c9486a1a00d25590150d8b59ceaf0e16257150dd8885077e5dae157f518dda","1,48771E+12",5,"low",80,8,0,"certainly",4284,"low"
"96c9486a1a00d25590150d8b59ceaf0e16257150dd8885077e5dae157f518dda","1,48771E+12",6,"none",108,10,8,"probably",1063,"none"
"96c9486a1a00d25590150d8b59ceaf0e16257150dd8885077e5dae157f518dda","1,48771E+12",7,"none",103,10,3,"possibly",1007,"none"
"96c9486a1a00d25590150d8b59ceaf0e16257150dd8885077e5dae157f518dda","1,48771E+12",8,"high",20,2,0,"possibly",1142,"high"
"96c9486a1a00d25590150d8b59ceaf0e16257150dd8885077e5dae157f518dda","1,48771E+12",9,"high",42,4,2,"probably",1000,"high"
"25108d222b4c1dda9ef4d02659d6302d4f1caaa3e99cec467841af865c6d649e","1,48773E+12",1,"high",22,2,2,"possibly",9349,"high"
"25108d222b4c1dda9ef4d02659d6302d4f1caaa3e99cec467841af865c6d649e","1,48773E+12",2,"low",86,8,6,"probablyNot",5347,"low"
"25108d222b4c1dda9ef4d02659d6302d4f1caaa3e99cec467841af865c6d649e","1,48773E+12",3,"none",103,10,3,"certainly",4060,"none"
"25108d222b4c1dda9ef4d02659d6302d4f1caaa3e99cec467841af865c6d649e","1,48773E+12",4,"high",42,4,2,"possibly",2460,"high"
"25108d222b4c1dda9ef4d02659d6302d4f1caaa3e99cec467841af865c6d649e","1,48773E+12",5,"none",102,10,2,"certainly",2907,"none"
"25108d222b4c1dda9ef4d02659d6302d4f1caaa3e99cec467841af865c6d649e","1,48773E+12",6,"low",80,8,0,"certainly",2271,"low"
"25108d222b4c1dda9ef4d02659d6302d4f1caaa3e99cec467841af865c6d649e","1,48773E+12",7,"none",105,10,5,"possibly",5276,"none"
"25108d222b4c1dda9ef4d02659d6302d4f1caaa3e99cec467841af865c6d649e","1,48773E+12",8,"high",20,2,0,"probably",2733,"high"
"25108d222b4c1dda9ef4d02659d6302d4f1caaa3e99cec467841af865c6d649e","1,48773E+12",9,"low",88,8,8,"certainlyNot",2226,"low"
"d11f5c4ac8eb98ca9c39c1fa0939ff01213125334ed2b100378ee735703eacd6","1,48771E+12",1,"none",105,10,5,"probablyNot",1935,"none"
"d11f5c4ac8eb98ca9c39c1fa0939ff01213125334ed2b100378ee735703eacd6","1,48771E+12",2,"high",42,4,2,"possibly",3925,"high"
"d11f5c4ac8eb98ca9c39c1fa0939ff01213125334ed2b100378ee735703eacd6","1,48771E+12",3,"high",41,4,1,"possibly",1365,"high"
"d11f5c4ac8eb98ca9c39c1fa0939ff01213125334ed2b100378ee735703eacd6","1,48771E+12",4,"low",82,8,2,"probably",1766,"low"
"d11f5c4ac8eb98ca9c39c1fa0939ff01213125334ed2b100378ee735703eacd6","1,48771E+12",5,"high",20,2,0,"probablyNot",2088,"high"
"d11f5c4ac8eb98ca9c39c1fa0939ff01213125334ed2b100378ee735703eacd6","1,48771E+12",6,"low",80,8,0,"probably",2021,"low"
"d11f5c4ac8eb98ca9c39c1fa0939ff01213125334ed2b100378ee735703eacd6","1,48771E+12",7,"low",84,8,4,"probablyNot",2063,"low"
"d11f5c4ac8eb98ca9c39c1fa0939ff01213125334ed2b100378ee735703eacd6","1,48771E+12",8,"none",103,10,3,"probablyNot",1449,"none"
"d11f5c4ac8eb98ca9c39c1fa0939ff01213125334ed2b100378ee735703eacd6","1,48771E+12",9,"none",102,10,2,"possibly",1927,"none"
"e7b2027002d40b95df38fef8d159b6286fd826a121a6e1371bbf4780b2dc703e","1,48774E+12",1,"low",80,8,0,"probably",3003,"low"
"e7b2027002d40b95df38fef8d159b6286fd826a121a6e1371bbf4780b2dc703e","1,48774E+12",2,"none",108,10,8,"probably",1948,"none"
"e7b2027002d40b95df38fef8d159b6286fd826a121a6e1371bbf4780b2dc703e","1,48774E+12",3,"high",22,2,2,"possibly",1765,"high"
"e7b2027002d40b95df38fef8d159b6286fd826a121a6e1371bbf4780b2dc703e","1,48774E+12",4,"low",86,8,6,"possibly",1645,"low"
"e7b2027002d40b95df38fef8d159b6286fd826a121a6e1371bbf4780b2dc703e","1,48774E+12",5,"none",103,10,3,"possibly",1495,"none"
"e7b2027002d40b95df38fef8d159b6286fd826a121a6e1371bbf4780b2dc703e","1,48774E+12",6,"none",107,10,7,"possibly",1472,"none"
"e7b2027002d40b95df38fef8d159b6286fd826a121a6e1371bbf4780b2dc703e","1,48774E+12",7,"low",82,8,2,"possibly",1556,"low"
"e7b2027002d40b95df38fef8d159b6286fd826a121a6e1371bbf4780b2dc703e","1,48774E+12",8,"high",43,4,3,"certainlyNot",1841,"high"
"e7b2027002d40b95df38fef8d159b6286fd826a121a6e1371bbf4780b2dc703e","1,48774E+12",9,"high",20,2,0,"probably",1810,"high"
"95889809c186e240b79e4dfc845b51aa9982f65bb5ae8ad8407944031eea9696","1,48771E+12",1,"none",108,10,8,"probably",17227,"none"
"95889809c186e240b79e4dfc845b51aa9982f65bb5ae8ad8407944031eea9696","1,48771E+12",2,"none",102,10,2,"probablyNot",12371,"none"
"95889809c186e240b79e4dfc845b51aa9982f65bb5ae8ad8407944031eea9696","1,48771E+12",3,"low",86,8,6,"probably",24729,"low"
"95889809c186e240b79e4dfc845b51aa9982f65bb5ae8ad8407944031eea9696","1,48771E+12",4,"high",41,4,1,"probablyNot",8646,"high"
"95889809c186e240b79e4dfc845b51aa9982f65bb5ae8ad8407944031eea9696","1,48771E+12",5,"low",84,8,4,"possibly",7098,"low"
"95889809c186e240b79e4dfc845b51aa9982f65bb5ae8ad8407944031eea9696","1,48771E+12",6,"low",88,8,8,"certainly",13860,"low"
"95889809c186e240b79e4dfc845b51aa9982f65bb5ae8ad8407944031eea9696","1,48771E+12",7,"high",43,4,3,"probably",5308,"high"
"95889809c186e240b79e4dfc845b51aa9982f65bb5ae8ad8407944031eea9696","1,48771E+12",8,"high",22,2,2,"possibly",9150,"high"
"95889809c186e240b79e4dfc845b51aa9982f65bb5ae8ad8407944031eea9696","1,48771E+12",9,"none",103,10,3,"probablyNot",10765,"none"
"6aa3d00ae919d8934f8aa2b8467539e5f09750c4cf7453eb3df53c2c9a1b17a4","1,48771E+12",1,"high",43,4,3,"possibly",12344,"high"
"6aa3d00ae919d8934f8aa2b8467539e5f09750c4cf7453eb3df53c2c9a1b17a4","1,48771E+12",2,"low",86,8,6,"probably",8197,"low"
"6aa3d00ae919d8934f8aa2b8467539e5f09750c4cf7453eb3df53c2c9a1b17a4","1,48771E+12",3,"high",42,4,2,"probablyNot",4502,"high"
"6aa3d00ae919d8934f8aa2b8467539e5f09750c4cf7453eb3df53c2c9a1b17a4","1,48771E+12",4,"none",102,10,2,"certainlyNot",2805,"none"
"6aa3d00ae919d8934f8aa2b8467539e5f09750c4cf7453eb3df53c2c9a1b17a4","1,48771E+12",5,"none",107,10,7,"probably",4028,"none"
"6aa3d00ae919d8934f8aa2b8467539e5f09750c4cf7453eb3df53c2c9a1b17a4","1,48771E+12",6,"high",22,2,2,"possibly",3225,"high"
"6aa3d00ae919d8934f8aa2b8467539e5f09750c4cf7453eb3df53c2c9a1b17a4","1,48771E+12",7,"low",88,8,8,"certainly",2836,"low"
"6aa3d00ae919d8934f8aa2b8467539e5f09750c4cf7453eb3df53c2c9a1b17a4","1,48771E+12",8,"low",80,8,0,"certainlyNot",2538,"low"
"6aa3d00ae919d8934f8aa2b8467539e5f09750c4cf7453eb3df53c2c9a1b17a4","1,48771E+12",9,"none",103,10,3,"probablyNot",2341,"none"
"1c7ce23c12c8f9cf4d0c078acf3b6d28ac46cae771a9d963947888cda9daa77d","1,48771E+12",1,"low",88,8,8,"probably",10773,"low"
"1c7ce23c12c8f9cf4d0c078acf3b6d28ac46cae771a9d963947888cda9daa77d","1,48771E+12",2,"none",108,10,8,"probably",18822,"none"
"1c7ce23c12c8f9cf4d0c078acf3b6d28ac46cae771a9d963947888cda9daa77d","1,48771E+12",3,"high",22,2,2,"possibly",6493,"high"
"1c7ce23c12c8f9cf4d0c078acf3b6d28ac46cae771a9d963947888cda9daa77d","1,48771E+12",4,"high",43,4,3,"possibly",8227,"high"
"1c7ce23c12c8f9cf4d0c078acf3b6d28ac46cae771a9d963947888cda9daa77d","1,48771E+12",5,"none",107,10,7,"probably",5897,"none"
"1c7ce23c12c8f9cf4d0c078acf3b6d28ac46cae771a9d963947888cda9daa77d","1,48771E+12",6,"none",105,10,5,"possibly",9381,"none"
"1c7ce23c12c8f9cf4d0c078acf3b6d28ac46cae771a9d963947888cda9daa77d","1,48771E+12",7,"low",80,8,0,"probablyNot",6911,"low"
"1c7ce23c12c8f9cf4d0c078acf3b6d28ac46cae771a9d963947888cda9daa77d","1,48771E+12",8,"low",86,8,6,"possibly",9661,"low"
"1c7ce23c12c8f9cf4d0c078acf3b6d28ac46cae771a9d963947888cda9daa77d","1,48771E+12",9,"high",20,2,0,"probablyNot",6353,"high"
"8396e3c12d47f0f38f09a4bfffa842d6b4c01808f3ce9199d809275892f84962","1,48772E+12",1,"none",103,10,3,"probablyNot",17515,"none"
"8396e3c12d47f0f38f09a4bfffa842d6b4c01808f3ce9199d809275892f84962","1,48772E+12",2,"none",105,10,5,"possibly",5238,"none"
"8396e3c12d47f0f38f09a4bfffa842d6b4c01808f3ce9199d809275892f84962","1,48772E+12",3,"high",20,2,0,"possibly",8343,"high"
"8396e3c12d47f0f38f09a4bfffa842d6b4c01808f3ce9199d809275892f84962","1,48772E+12",4,"low",86,8,6,"probably",8335,"low"
"8396e3c12d47f0f38f09a4bfffa842d6b4c01808f3ce9199d809275892f84962","1,48772E+12",5,"none",108,10,8,"probably",8231,"none"
"8396e3c12d47f0f38f09a4bfffa842d6b4c01808f3ce9199d809275892f84962","1,48772E+12",6,"high",43,4,3,"possibly",5039,"high"
"8396e3c12d47f0f38f09a4bfffa842d6b4c01808f3ce9199d809275892f84962","1,48772E+12",7,"high",42,4,2,"possibly",3231,"high"
"8396e3c12d47f0f38f09a4bfffa842d6b4c01808f3ce9199d809275892f84962","1,48772E+12",8,"low",88,8,8,"probably",4223,"low"
"8396e3c12d47f0f38f09a4bfffa842d6b4c01808f3ce9199d809275892f84962","1,48772E+12",9,"low",82,8,2,"probablyNot",4815,"low"
"0e63f3f8891a619d93276103551455759c7ea324d85d2e714d843ad56096db1a","1,48771E+12",1,"low",82,8,2,"probablyNot",20412,"low"
"0e63f3f8891a619d93276103551455759c7ea324d85d2e714d843ad56096db1a","1,48771E+12",2,"none",107,10,7,"probably",21314,"none"
"0e63f3f8891a619d93276103551455759c7ea324d85d2e714d843ad56096db1a","1,48771E+12",3,"none",102,10,2,"probablyNot",10069,"none"
"0e63f3f8891a619d93276103551455759c7ea324d85d2e714d843ad56096db1a","1,48771E+12",4,"low",88,8,8,"certainly",3671,"low"
"0e63f3f8891a619d93276103551455759c7ea324d85d2e714d843ad56096db1a","1,48771E+12",5,"low",84,8,4,"possibly",8368,"low"
"0e63f3f8891a619d93276103551455759c7ea324d85d2e714d843ad56096db1a","1,48771E+12",6,"high",43,4,3,"possibly",10392,"high"
"0e63f3f8891a619d93276103551455759c7ea324d85d2e714d843ad56096db1a","1,48771E+12",7,"high",22,2,2,"probably",5536,"high"
"0e63f3f8891a619d93276103551455759c7ea324d85d2e714d843ad56096db1a","1,48771E+12",8,"none",103,10,3,"probablyNot",36861,"none"
"0e63f3f8891a619d93276103551455759c7ea324d85d2e714d843ad56096db1a","1,48771E+12",9,"high",41,4,1,"probablyNot",7305,"high"
"915ce8ac1853839d02ed2604f33b8e63fb5cfff03659b6ee88263a87621fb434","1,48772E+12",1,"high",43,4,3,"probably",14975,"high"
"915ce8ac1853839d02ed2604f33b8e63fb5cfff03659b6ee88263a87621fb434","1,48772E+12",2,"none",102,10,2,"probablyNot",16021,"none"
"915ce8ac1853839d02ed2604f33b8e63fb5cfff03659b6ee88263a87621fb434","1,48772E+12",3,"none",105,10,5,"possibly",22681,"none"
"915ce8ac1853839d02ed2604f33b8e63fb5cfff03659b6ee88263a87621fb434","1,48772E+12",4,"low",82,8,2,"probablyNot",9205,"low"
"915ce8ac1853839d02ed2604f33b8e63fb5cfff03659b6ee88263a87621fb434","1,48772E+12",5,"low",86,8,6,"probably",5982,"low"
"915ce8ac1853839d02ed2604f33b8e63fb5cfff03659b6ee88263a87621fb434","1,48772E+12",6,"high",41,4,1,"probablyNot",9256,"high"
"915ce8ac1853839d02ed2604f33b8e63fb5cfff03659b6ee88263a87621fb434","1,48772E+12",7,"low",80,8,0,"certainlyNot",9353,"low"
"915ce8ac1853839d02ed2604f33b8e63fb5cfff03659b6ee88263a87621fb434","1,48772E+12",8,"none",108,10,8,"probably",7057,"none"
"915ce8ac1853839d02ed2604f33b8e63fb5cfff03659b6ee88263a87621fb434","1,48772E+12",9,"high",42,4,2,"possibly",10641,"high"
"f34cf303b2540a999c3440fd329754d1c28dd47270b9f189842385a031285c6b","1,48771E+12",1,"low",84,8,4,"possibly",7756,"low"
"f34cf303b2540a999c3440fd329754d1c28dd47270b9f189842385a031285c6b","1,48771E+12",2,"high",22,2,2,"probably",5151,"high"
"f34cf303b2540a999c3440fd329754d1c28dd47270b9f189842385a031285c6b","1,48771E+12",3,"high",43,4,3,"probably",3406,"high"
"f34cf303b2540a999c3440fd329754d1c28dd47270b9f189842385a031285c6b","1,48771E+12",4,"high",20,2,0,"probablyNot",7966,"high"
"f34cf303b2540a999c3440fd329754d1c28dd47270b9f189842385a031285c6b","1,48771E+12",5,"none",108,10,8,"probably",14160,"none"
"f34cf303b2540a999c3440fd329754d1c28dd47270b9f189842385a031285c6b","1,48771E+12",6,"low",80,8,0,"probablyNot",3799,"low"
"f34cf303b2540a999c3440fd329754d1c28dd47270b9f189842385a031285c6b","1,48771E+12",7,"none",103,10,3,"probablyNot",5127,"none"
"f34cf303b2540a999c3440fd329754d1c28dd47270b9f189842385a031285c6b","1,48771E+12",8,"low",88,8,8,"probably",3904,"low"
"f34cf303b2540a999c3440fd329754d1c28dd47270b9f189842385a031285c6b","1,48771E+12",9,"none",105,10,5,"possibly",5423,"none"
"cf1f1e17d25573cdf8c3a48820e14a08a43f6907738f11afbdbc970a56db3a28","1,48785E+12",1,"high",43,4,3,"possibly",16273,"high"
"cf1f1e17d25573cdf8c3a48820e14a08a43f6907738f11afbdbc970a56db3a28","1,48785E+12",2,"low",80,8,0,"probablyNot",7230,"low"
"cf1f1e17d25573cdf8c3a48820e14a08a43f6907738f11afbdbc970a56db3a28","1,48785E+12",3,"low",86,8,6,"possibly",4611,"low"
"cf1f1e17d25573cdf8c3a48820e14a08a43f6907738f11afbdbc970a56db3a28","1,48785E+12",4,"none",105,10,5,"possibly",4222,"none"
"cf1f1e17d25573cdf8c3a48820e14a08a43f6907738f11afbdbc970a56db3a28","1,48785E+12",5,"low",84,8,4,"probablyNot",8636,"low"
"cf1f1e17d25573cdf8c3a48820e14a08a43f6907738f11afbdbc970a56db3a28","1,48785E+12",6,"high",42,4,2,"probablyNot",4181,"high"
"cf1f1e17d25573cdf8c3a48820e14a08a43f6907738f11afbdbc970a56db3a28","1,48785E+12",7,"none",103,10,3,"probablyNot",4105,"none"
"cf1f1e17d25573cdf8c3a48820e14a08a43f6907738f11afbdbc970a56db3a28","1,48785E+12",8,"none",108,10,8,"probably",4016,"none"
"cf1f1e17d25573cdf8c3a48820e14a08a43f6907738f11afbdbc970a56db3a28","1,48785E+12",9,"high",20,2,0,"certainlyNot",6176,"high"
"d5b26b2d4283cb2b3913cad7d5db1a35be7e61df16390e1c24ed501a157e5201","1,48781E+12",1,"high",41,4,1,"probablyNot",12195,"high"
"d5b26b2d4283cb2b3913cad7d5db1a35be7e61df16390e1c24ed501a157e5201","1,48781E+12",2,"low",84,8,4,"possibly",7318,"low"
"d5b26b2d4283cb2b3913cad7d5db1a35be7e61df16390e1c24ed501a157e5201","1,48781E+12",3,"none",103,10,3,"probablyNot",5709,"none"
"d5b26b2d4283cb2b3913cad7d5db1a35be7e61df16390e1c24ed501a157e5201","1,48781E+12",4,"low",82,8,2,"probablyNot",6454,"low"
"d5b26b2d4283cb2b3913cad7d5db1a35be7e61df16390e1c24ed501a157e5201","1,48781E+12",5,"low",88,8,8,"certainly",5390,"low"
"d5b26b2d4283cb2b3913cad7d5db1a35be7e61df16390e1c24ed501a157e5201","1,48781E+12",6,"none",105,10,5,"possibly",3941,"none"
"d5b26b2d4283cb2b3913cad7d5db1a35be7e61df16390e1c24ed501a157e5201","1,48781E+12",7,"high",42,4,2,"possibly",4814,"high"
"d5b26b2d4283cb2b3913cad7d5db1a35be7e61df16390e1c24ed501a157e5201","1,48781E+12",8,"none",107,10,7,"probably",6015,"none"
"d5b26b2d4283cb2b3913cad7d5db1a35be7e61df16390e1c24ed501a157e5201","1,48781E+12",9,"high",20,2,0,"possibly",3950,"high"
"b2e602d0506e70ce1399b3852465a401ace8041f2131cac45a20a87aa11a46f0","1,48781E+12",1,"none",105,10,5,"possibly",10936,"none"
"b2e602d0506e70ce1399b3852465a401ace8041f2131cac45a20a87aa11a46f0","1,48781E+12",2,"none",108,10,8,"probably",6476,"none"
"b2e602d0506e70ce1399b3852465a401ace8041f2131cac45a20a87aa11a46f0","1,48781E+12",3,"high",20,2,0,"probablyNot",5185,"high"
"b2e602d0506e70ce1399b3852465a401ace8041f2131cac45a20a87aa11a46f0","1,48781E+12",4,"none",107,10,7,"probably",4010,"none"
"b2e602d0506e70ce1399b3852465a401ace8041f2131cac45a20a87aa11a46f0","1,48781E+12",5,"low",88,8,8,"probably",2621,"low"
"b2e602d0506e70ce1399b3852465a401ace8041f2131cac45a20a87aa11a46f0","1,48781E+12",6,"high",42,4,2,"possibly",5564,"high"
"b2e602d0506e70ce1399b3852465a401ace8041f2131cac45a20a87aa11a46f0","1,48781E+12",7,"low",86,8,6,"probably",5069,"low"
"b2e602d0506e70ce1399b3852465a401ace8041f2131cac45a20a87aa11a46f0","1,48781E+12",8,"low",80,8,0,"certainlyNot",6721,"low"
"b2e602d0506e70ce1399b3852465a401ace8041f2131cac45a20a87aa11a46f0","1,48781E+12",9,"high",41,4,1,"probablyNot",4410,"high"
"f42d480f355825a27c1807978f619f713679ecc6a648b46543a4d44ddd1d201c","1,4878E+12",1,"low",88,8,8,"certainly",4755,"low"
"f42d480f355825a27c1807978f619f713679ecc6a648b46543a4d44ddd1d201c","1,4878E+12",2,"high",42,4,2,"possibly",2975,"high"
"f42d480f355825a27c1807978f619f713679ecc6a648b46543a4d44ddd1d201c","1,4878E+12",3,"none",103,10,3,"probablyNot",3070,"none"
"f42d480f355825a27c1807978f619f713679ecc6a648b46543a4d44ddd1d201c","1,4878E+12",4,"high",20,2,0,"certainlyNot",2303,"high"
"f42d480f355825a27c1807978f619f713679ecc6a648b46543a4d44ddd1d201c","1,4878E+12",5,"high",22,2,2,"certainly",2992,"high"
"f42d480f355825a27c1807978f619f713679ecc6a648b46543a4d44ddd1d201c","1,4878E+12",6,"low",86,8,6,"probably",2336,"low"
"f42d480f355825a27c1807978f619f713679ecc6a648b46543a4d44ddd1d201c","1,4878E+12",7,"none",102,10,2,"probablyNot",2701,"none"
"f42d480f355825a27c1807978f619f713679ecc6a648b46543a4d44ddd1d201c","1,4878E+12",8,"low",82,8,2,"probablyNot",2559,"low"
"f42d480f355825a27c1807978f619f713679ecc6a648b46543a4d44ddd1d201c","1,4878E+12",9,"none",107,10,7,"probably",2447,"none"
"becd3e44eecaa9d8fc2c7b690ac633b676e9bded671e08465be1e059753ec27d","1,48781E+12",1,"high",22,2,2,"possibly",11143,"high"
"becd3e44eecaa9d8fc2c7b690ac633b676e9bded671e08465be1e059753ec27d","1,48781E+12",2,"none",103,10,3,"probablyNot",9451,"none"
"becd3e44eecaa9d8fc2c7b690ac633b676e9bded671e08465be1e059753ec27d","1,48781E+12",3,"low",82,8,2,"probablyNot",6696,"low"
"becd3e44eecaa9d8fc2c7b690ac633b676e9bded671e08465be1e059753ec27d","1,48781E+12",4,"none",108,10,8,"probably",7767,"none"
"becd3e44eecaa9d8fc2c7b690ac633b676e9bded671e08465be1e059753ec27d","1,48781E+12",5,"high",41,4,1,"probablyNot",7330,"high"
"becd3e44eecaa9d8fc2c7b690ac633b676e9bded671e08465be1e059753ec27d","1,48781E+12",6,"low",86,8,6,"probably",8383,"low"
"becd3e44eecaa9d8fc2c7b690ac633b676e9bded671e08465be1e059753ec27d","1,48781E+12",7,"low",88,8,8,"probably",3689,"low"
"becd3e44eecaa9d8fc2c7b690ac633b676e9bded671e08465be1e059753ec27d","1,48781E+12",8,"none",105,10,5,"possibly",16273,"none"
"becd3e44eecaa9d8fc2c7b690ac633b676e9bded671e08465be1e059753ec27d","1,48781E+12",9,"high",43,4,3,"probably",4365,"high"
"f633cd3f307ff6af1d6dcd0cf3bc7fd3b6390e55c81e36715f5facb9ae3c2fca","1,48786E+12",1,"low",84,8,4,"possibly",15111,"low"
"f633cd3f307ff6af1d6dcd0cf3bc7fd3b6390e55c81e36715f5facb9ae3c2fca","1,48786E+12",2,"none",107,10,7,"probably",8389,"none"
"f633cd3f307ff6af1d6dcd0cf3bc7fd3b6390e55c81e36715f5facb9ae3c2fca","1,48786E+12",3,"high",42,4,2,"certainlyNot",8610,"high"
"f633cd3f307ff6af1d6dcd0cf3bc7fd3b6390e55c81e36715f5facb9ae3c2fca","1,48786E+12",4,"high",43,4,3,"probablyNot",3650,"high"
"f633cd3f307ff6af1d6dcd0cf3bc7fd3b6390e55c81e36715f5facb9ae3c2fca","1,48786E+12",5,"low",86,8,6,"possibly",8037,"low"
"f633cd3f307ff6af1d6dcd0cf3bc7fd3b6390e55c81e36715f5facb9ae3c2fca","1,48786E+12",6,"high",20,2,0,"certainlyNot",4052,"high"
"f633cd3f307ff6af1d6dcd0cf3bc7fd3b6390e55c81e36715f5facb9ae3c2fca","1,48786E+12",7,"low",82,8,2,"certainlyNot",7355,"low"
"f633cd3f307ff6af1d6dcd0cf3bc7fd3b6390e55c81e36715f5facb9ae3c2fca","1,48786E+12",8,"none",108,10,8,"probably",3626,"none"
"f633cd3f307ff6af1d6dcd0cf3bc7fd3b6390e55c81e36715f5facb9ae3c2fca","1,48786E+12",9,"none",103,10,3,"probablyNot",4319,"none"
"3e61bb4625227afe09e972aaf66d10d065306a5eaceffae62486cb34cb3df73c","1,4878E+12",1,"high",42,4,2,"possibly",11414,"high"
"3e61bb4625227afe09e972aaf66d10d065306a5eaceffae62486cb34cb3df73c","1,4878E+12",2,"none",107,10,7,"probably",9449,"none"
"3e61bb4625227afe09e972aaf66d10d065306a5eaceffae62486cb34cb3df73c","1,4878E+12",3,"low",82,8,2,"probablyNot",8400,"low"
"3e61bb4625227afe09e972aaf66d10d065306a5eaceffae62486cb34cb3df73c","1,4878E+12",4,"low",88,8,8,"certainly",5751,"low"
"3e61bb4625227afe09e972aaf66d10d065306a5eaceffae62486cb34cb3df73c","1,4878E+12",5,"high",43,4,3,"possibly",12966,"high"
"3e61bb4625227afe09e972aaf66d10d065306a5eaceffae62486cb34cb3df73c","1,4878E+12",6,"none",105,10,5,"possibly",22901,"none"
"3e61bb4625227afe09e972aaf66d10d065306a5eaceffae62486cb34cb3df73c","1,4878E+12",7,"high",41,4,1,"probablyNot",5085,"high"
"3e61bb4625227afe09e972aaf66d10d065306a5eaceffae62486cb34cb3df73c","1,4878E+12",8,"low",86,8,6,"probably",9315,"low"
"3e61bb4625227afe09e972aaf66d10d065306a5eaceffae62486cb34cb3df73c","1,4878E+12",9,"none",108,10,8,"probably",6161,"none"
"e1f3e406c30f5f48101e7b29e0142aa67c0a10eec0b7b897d7ec7b252e418109","1,48788E+12",1,"none",102,10,2,"probablyNot",10248,"none"
"e1f3e406c30f5f48101e7b29e0142aa67c0a10eec0b7b897d7ec7b252e418109","1,48788E+12",2,"low",84,8,4,"possibly",4814,"low"
"e1f3e406c30f5f48101e7b29e0142aa67c0a10eec0b7b897d7ec7b252e418109","1,48788E+12",3,"high",41,4,1,"probablyNot",4296,"high"
"e1f3e406c30f5f48101e7b29e0142aa67c0a10eec0b7b897d7ec7b252e418109","1,48788E+12",4,"high",43,4,3,"possibly",8076,"high"
"e1f3e406c30f5f48101e7b29e0142aa67c0a10eec0b7b897d7ec7b252e418109","1,48788E+12",5,"none",107,10,7,"probably",7271,"none"
"e1f3e406c30f5f48101e7b29e0142aa67c0a10eec0b7b897d7ec7b252e418109","1,48788E+12",6,"none",108,10,8,"probably",14816,"none"
"e1f3e406c30f5f48101e7b29e0142aa67c0a10eec0b7b897d7ec7b252e418109","1,48788E+12",7,"low",88,8,8,"probably",5145,"low"
"e1f3e406c30f5f48101e7b29e0142aa67c0a10eec0b7b897d7ec7b252e418109","1,48788E+12",8,"high",22,2,2,"possibly",3008,"high"
"e1f3e406c30f5f48101e7b29e0142aa67c0a10eec0b7b897d7ec7b252e418109","1,48788E+12",9,"low",80,8,0,"probablyNot",4340,"low"
"17e696f42eef719176f381fb4c7c1e9bafd722b14c9a74ce90e7996eaac2996c","1,4878E+12",1,"low",82,8,2,"probablyNot",5926,"low"
"17e696f42eef719176f381fb4c7c1e9bafd722b14c9a74ce90e7996eaac2996c","1,4878E+12",2,"none",108,10,8,"probably",10439,"none"
"17e696f42eef719176f381fb4c7c1e9bafd722b14c9a74ce90e7996eaac2996c","1,4878E+12",3,"high",43,4,3,"probably",4027,"high"
"17e696f42eef719176f381fb4c7c1e9bafd722b14c9a74ce90e7996eaac2996c","1,4878E+12",4,"low",80,8,0,"certainlyNot",4805,"low"
"17e696f42eef719176f381fb4c7c1e9bafd722b14c9a74ce90e7996eaac2996c","1,4878E+12",5,"high",22,2,2,"probably",4281,"high"
"17e696f42eef719176f381fb4c7c1e9bafd722b14c9a74ce90e7996eaac2996c","1,4878E+12",6,"high",41,4,1,"probablyNot",3329,"high"
"17e696f42eef719176f381fb4c7c1e9bafd722b14c9a74ce90e7996eaac2996c","1,4878E+12",7,"low",86,8,6,"probably",5948,"low"
"17e696f42eef719176f381fb4c7c1e9bafd722b14c9a74ce90e7996eaac2996c","1,4878E+12",8,"none",102,10,2,"probablyNot",5852,"none"
"17e696f42eef719176f381fb4c7c1e9bafd722b14c9a74ce90e7996eaac2996c","1,4878E+12",9,"none",105,10,5,"possibly",3457,"none"
"876e0705b6997dceced468388b1339ba2f333f3781bc3333d50dcf3551e59858","1,4878E+12",1,"low",82,8,2,"possibly",17925,"low"
"876e0705b6997dceced468388b1339ba2f333f3781bc3333d50dcf3551e59858","1,4878E+12",2,"none",102,10,2,"possibly",11687,"none"
"876e0705b6997dceced468388b1339ba2f333f3781bc3333d50dcf3551e59858","1,4878E+12",3,"high",43,4,3,"probably",8626,"high"
"876e0705b6997dceced468388b1339ba2f333f3781bc3333d50dcf3551e59858","1,4878E+12",4,"high",42,4,2,"probably",6489,"high"
"876e0705b6997dceced468388b1339ba2f333f3781bc3333d50dcf3551e59858","1,4878E+12",5,"none",103,10,3,"possibly",7062,"none"
"876e0705b6997dceced468388b1339ba2f333f3781bc3333d50dcf3551e59858","1,4878E+12",6,"low",86,8,6,"probably",5813,"low"
"876e0705b6997dceced468388b1339ba2f333f3781bc3333d50dcf3551e59858","1,4878E+12",7,"low",88,8,8,"certainly",6608,"low"
"876e0705b6997dceced468388b1339ba2f333f3781bc3333d50dcf3551e59858","1,4878E+12",8,"none",107,10,7,"probably",5042,"none"
"876e0705b6997dceced468388b1339ba2f333f3781bc3333d50dcf3551e59858","1,4878E+12",9,"high",20,2,0,"probablyNot",4846,"high"
"0fc4b801724b1b3d3f2c5997406b66dcc9a986af53926b181d0ccff4c17b8cc3","1,4878E+12",1,"low",88,8,8,"probably",13320,"low"
"0fc4b801724b1b3d3f2c5997406b66dcc9a986af53926b181d0ccff4c17b8cc3","1,4878E+12",2,"low",82,8,2,"probablyNot",10098,"low"
"0fc4b801724b1b3d3f2c5997406b66dcc9a986af53926b181d0ccff4c17b8cc3","1,4878E+12",3,"none",107,10,7,"probably",8554,"none"
"0fc4b801724b1b3d3f2c5997406b66dcc9a986af53926b181d0ccff4c17b8cc3","1,4878E+12",4,"high",20,2,0,"possibly",6771,"high"
"0fc4b801724b1b3d3f2c5997406b66dcc9a986af53926b181d0ccff4c17b8cc3","1,4878E+12",5,"low",86,8,6,"probably",7717,"low"
"0fc4b801724b1b3d3f2c5997406b66dcc9a986af53926b181d0ccff4c17b8cc3","1,4878E+12",6,"high",41,4,1,"probablyNot",13624,"high"
"0fc4b801724b1b3d3f2c5997406b66dcc9a986af53926b181d0ccff4c17b8cc3","1,4878E+12",7,"none",102,10,2,"probablyNot",6393,"none"
"0fc4b801724b1b3d3f2c5997406b66dcc9a986af53926b181d0ccff4c17b8cc3","1,4878E+12",8,"high",42,4,2,"possibly",4544,"high"
"0fc4b801724b1b3d3f2c5997406b66dcc9a986af53926b181d0ccff4c17b8cc3","1,4878E+12",9,"none",103,10,3,"probablyNot",5851,"none"
"31406e3db46ae04220f88454cabf41cb267b8e4a596b80d67e5bdceb5a71b202","1,4878E+12",1,"high",20,2,0,"possibly",7307,"high"
"31406e3db46ae04220f88454cabf41cb267b8e4a596b80d67e5bdceb5a71b202","1,4878E+12",2,"none",103,10,3,"probably",7408,"none"
"31406e3db46ae04220f88454cabf41cb267b8e4a596b80d67e5bdceb5a71b202","1,4878E+12",3,"none",108,10,8,"probably",10336,"none"
"31406e3db46ae04220f88454cabf41cb267b8e4a596b80d67e5bdceb5a71b202","1,4878E+12",4,"none",102,10,2,"probablyNot",7080,"none"
"31406e3db46ae04220f88454cabf41cb267b8e4a596b80d67e5bdceb5a71b202","1,4878E+12",5,"low",80,8,0,"certainlyNot",6000,"low"
"31406e3db46ae04220f88454cabf41cb267b8e4a596b80d67e5bdceb5a71b202","1,4878E+12",6,"high",43,4,3,"certainly",6560,"high"
"31406e3db46ae04220f88454cabf41cb267b8e4a596b80d67e5bdceb5a71b202","1,4878E+12",7,"low",84,8,4,"probably",4901,"low"
"31406e3db46ae04220f88454cabf41cb267b8e4a596b80d67e5bdceb5a71b202","1,4878E+12",8,"high",22,2,2,"certainly",4499,"high"
"31406e3db46ae04220f88454cabf41cb267b8e4a596b80d67e5bdceb5a71b202","1,4878E+12",9,"low",86,8,6,"probably",6885,"low"
"a99bb64696661663889cbdd6065a291d944b44ea47bc54fdd5408277a2b22abc","1,4878E+12",1,"none",103,10,3,"probablyNot",9769,"none"
"a99bb64696661663889cbdd6065a291d944b44ea47bc54fdd5408277a2b22abc","1,4878E+12",2,"low",82,8,2,"probablyNot",3566,"low"
"a99bb64696661663889cbdd6065a291d944b44ea47bc54fdd5408277a2b22abc","1,4878E+12",3,"none",108,10,8,"probably",3494,"none"
"a99bb64696661663889cbdd6065a291d944b44ea47bc54fdd5408277a2b22abc","1,4878E+12",4,"none",105,10,5,"possibly",3502,"none"
"a99bb64696661663889cbdd6065a291d944b44ea47bc54fdd5408277a2b22abc","1,4878E+12",5,"low",88,8,8,"certainly",2735,"low"
"a99bb64696661663889cbdd6065a291d944b44ea47bc54fdd5408277a2b22abc","1,4878E+12",6,"high",41,4,1,"probablyNot",3087,"high"
"a99bb64696661663889cbdd6065a291d944b44ea47bc54fdd5408277a2b22abc","1,4878E+12",7,"high",42,4,2,"probablyNot",2775,"high"
"a99bb64696661663889cbdd6065a291d944b44ea47bc54fdd5408277a2b22abc","1,4878E+12",8,"low",84,8,4,"possibly",3311,"low"
"a99bb64696661663889cbdd6065a291d944b44ea47bc54fdd5408277a2b22abc","1,4878E+12",9,"high",20,2,0,"possibly",9103,"high"
"87d33ef73c2f2d2d40003821ad8932a61a1c03d91e192b532b022297db784df9","1,48786E+12",1,"low",82,8,2,"probablyNot",14338,"low"
"87d33ef73c2f2d2d40003821ad8932a61a1c03d91e192b532b022297db784df9","1,48786E+12",2,"none",107,10,7,"probably",10262,"none"
"87d33ef73c2f2d2d40003821ad8932a61a1c03d91e192b532b022297db784df9","1,48786E+12",3,"high",43,4,3,"possibly",8931,"high"
"87d33ef73c2f2d2d40003821ad8932a61a1c03d91e192b532b022297db784df9","1,48786E+12",4,"low",88,8,8,"probably",8598,"low"
"87d33ef73c2f2d2d40003821ad8932a61a1c03d91e192b532b022297db784df9","1,48786E+12",5,"none",105,10,5,"possibly",7147,"none"
"87d33ef73c2f2d2d40003821ad8932a61a1c03d91e192b532b022297db784df9","1,48786E+12",6,"none",108,10,8,"probably",6753,"none"
"87d33ef73c2f2d2d40003821ad8932a61a1c03d91e192b532b022297db784df9","1,48786E+12",7,"high",42,4,2,"possibly",9254,"high"
"87d33ef73c2f2d2d40003821ad8932a61a1c03d91e192b532b022297db784df9","1,48786E+12",8,"high",41,4,1,"probablyNot",5832,"high"
"87d33ef73c2f2d2d40003821ad8932a61a1c03d91e192b532b022297db784df9","1,48786E+12",9,"low",80,8,0,"probablyNot",4700,"low"
"2dc44a6f78cd7153f6d39740a80cfe8e4ffba54b154537a56972895f45df5ab3","1,4878E+12",1,"high",43,4,3,"possibly",6909,"high"
"2dc44a6f78cd7153f6d39740a80cfe8e4ffba54b154537a56972895f45df5ab3","1,4878E+12",2,"low",88,8,8,"probably",6170,"low"
"2dc44a6f78cd7153f6d39740a80cfe8e4ffba54b154537a56972895f45df5ab3","1,4878E+12",3,"low",82,8,2,"probablyNot",5435,"low"
"2dc44a6f78cd7153f6d39740a80cfe8e4ffba54b154537a56972895f45df5ab3","1,4878E+12",4,"high",42,4,2,"possibly",3751,"high"
"2dc44a6f78cd7153f6d39740a80cfe8e4ffba54b154537a56972895f45df5ab3","1,4878E+12",5,"low",80,8,0,"probablyNot",4937,"low"
"2dc44a6f78cd7153f6d39740a80cfe8e4ffba54b154537a56972895f45df5ab3","1,4878E+12",6,"none",105,10,5,"possibly",3235,"none"
"2dc44a6f78cd7153f6d39740a80cfe8e4ffba54b154537a56972895f45df5ab3","1,4878E+12",7,"none",108,10,8,"probably",3406,"none"
"2dc44a6f78cd7153f6d39740a80cfe8e4ffba54b154537a56972895f45df5ab3","1,4878E+12",8,"none",107,10,7,"probably",3230,"none"
"2dc44a6f78cd7153f6d39740a80cfe8e4ffba54b154537a56972895f45df5ab3","1,4878E+12",9,"high",20,2,0,"possibly",4153,"high"
"8ee0bce305eed762623cd3e6006dfd180ffa6c7728a1dc293ab908ad48b68b72","1,4878E+12",1,"high",42,4,2,"possibly",11081,"high"
"8ee0bce305eed762623cd3e6006dfd180ffa6c7728a1dc293ab908ad48b68b72","1,4878E+12",2,"none",108,10,8,"probably",6979,"none"
"8ee0bce305eed762623cd3e6006dfd180ffa6c7728a1dc293ab908ad48b68b72","1,4878E+12",3,"low",84,8,4,"possibly",6379,"low"
"8ee0bce305eed762623cd3e6006dfd180ffa6c7728a1dc293ab908ad48b68b72","1,4878E+12",4,"none",105,10,5,"possibly",5651,"none"
"8ee0bce305eed762623cd3e6006dfd180ffa6c7728a1dc293ab908ad48b68b72","1,4878E+12",5,"high",22,2,2,"possibly",6155,"high"
"8ee0bce305eed762623cd3e6006dfd180ffa6c7728a1dc293ab908ad48b68b72","1,4878E+12",6,"low",82,8,2,"probablyNot",5564,"low"
"8ee0bce305eed762623cd3e6006dfd180ffa6c7728a1dc293ab908ad48b68b72","1,4878E+12",7,"low",88,8,8,"probably",6057,"low"
"8ee0bce305eed762623cd3e6006dfd180ffa6c7728a1dc293ab908ad48b68b72","1,4878E+12",8,"high",41,4,1,"possibly",5261,"high"
"8ee0bce305eed762623cd3e6006dfd180ffa6c7728a1dc293ab908ad48b68b72","1,4878E+12",9,"none",102,10,2,"probablyNot",5837,"none"
"dc8936fc9f85809aac52f4c5e48ed7d29e89376fb34d16d0985a38d332018dbd","1,4878E+12",1,"high",41,4,1,"possibly",16628,"high"
"dc8936fc9f85809aac52f4c5e48ed7d29e89376fb34d16d0985a38d332018dbd","1,4878E+12",2,"none",102,10,2,"certainlyNot",11358,"none"
"dc8936fc9f85809aac52f4c5e48ed7d29e89376fb34d16d0985a38d332018dbd","1,4878E+12",3,"low",86,8,6,"probablyNot",21970,"low"
"dc8936fc9f85809aac52f4c5e48ed7d29e89376fb34d16d0985a38d332018dbd","1,4878E+12",4,"high",22,2,2,"possibly",9323,"high"
"dc8936fc9f85809aac52f4c5e48ed7d29e89376fb34d16d0985a38d332018dbd","1,4878E+12",5,"low",88,8,8,"probablyNot",11205,"low"
"dc8936fc9f85809aac52f4c5e48ed7d29e89376fb34d16d0985a38d332018dbd","1,4878E+12",6,"high",20,2,0,"possibly",7226,"high"
"dc8936fc9f85809aac52f4c5e48ed7d29e89376fb34d16d0985a38d332018dbd","1,4878E+12",7,"none",105,10,5,"certainlyNot",14359,"none"
"dc8936fc9f85809aac52f4c5e48ed7d29e89376fb34d16d0985a38d332018dbd","1,4878E+12",8,"low",84,8,4,"possibly",16828,"low"
"dc8936fc9f85809aac52f4c5e48ed7d29e89376fb34d16d0985a38d332018dbd","1,4878E+12",9,"none",108,10,8,"certainlyNot",12001,"none"
"f3e88744c2f3b81724b643e5f23ce8db2ab2d9b9bb2cb5b8087b91ec1dc997b6","1,48781E+12",1,"high",22,2,2,"probably",7123,"high"
"f3e88744c2f3b81724b643e5f23ce8db2ab2d9b9bb2cb5b8087b91ec1dc997b6","1,48781E+12",2,"none",103,10,3,"probably",3063,"none"
"f3e88744c2f3b81724b643e5f23ce8db2ab2d9b9bb2cb5b8087b91ec1dc997b6","1,48781E+12",3,"high",42,4,2,"possibly",6230,"high"
"f3e88744c2f3b81724b643e5f23ce8db2ab2d9b9bb2cb5b8087b91ec1dc997b6","1,48781E+12",4,"none",108,10,8,"certainly",3767,"none"
"f3e88744c2f3b81724b643e5f23ce8db2ab2d9b9bb2cb5b8087b91ec1dc997b6","1,48781E+12",5,"high",20,2,0,"probablyNot",5908,"high"
"f3e88744c2f3b81724b643e5f23ce8db2ab2d9b9bb2cb5b8087b91ec1dc997b6","1,48781E+12",6,"low",86,8,6,"probably",6429,"low"
"f3e88744c2f3b81724b643e5f23ce8db2ab2d9b9bb2cb5b8087b91ec1dc997b6","1,48781E+12",7,"low",84,8,4,"possibly",9663,"low"
"f3e88744c2f3b81724b643e5f23ce8db2ab2d9b9bb2cb5b8087b91ec1dc997b6","1,48781E+12",8,"none",107,10,7,"certainly",4216,"none"
"f3e88744c2f3b81724b643e5f23ce8db2ab2d9b9bb2cb5b8087b91ec1dc997b6","1,48781E+12",9,"low",82,8,2,"probablyNot",4023,"low"
"ac8bfa2771096d3776ae575c01730defd45063aca3ee335154a678226456f582","1,4878E+12",1,"low",88,8,8,"probably",23715,"low"
"ac8bfa2771096d3776ae575c01730defd45063aca3ee335154a678226456f582","1,4878E+12",2,"high",20,2,0,"probablyNot",15037,"high"
"ac8bfa2771096d3776ae575c01730defd45063aca3ee335154a678226456f582","1,4878E+12",3,"low",84,8,4,"possibly",10064,"low"
"ac8bfa2771096d3776ae575c01730defd45063aca3ee335154a678226456f582","1,4878E+12",4,"none",108,10,8,"probably",14702,"none"
"ac8bfa2771096d3776ae575c01730defd45063aca3ee335154a678226456f582","1,4878E+12",5,"none",107,10,7,"probably",10126,"none"
"ac8bfa2771096d3776ae575c01730defd45063aca3ee335154a678226456f582","1,4878E+12",6,"high",22,2,2,"possibly",6559,"high"
"ac8bfa2771096d3776ae575c01730defd45063aca3ee335154a678226456f582","1,4878E+12",7,"low",82,8,2,"probablyNot",8023,"low"
"ac8bfa2771096d3776ae575c01730defd45063aca3ee335154a678226456f582","1,4878E+12",8,"high",43,4,3,"possibly",9527,"high"
"ac8bfa2771096d3776ae575c01730defd45063aca3ee335154a678226456f582","1,4878E+12",9,"none",105,10,5,"possibly",10239,"none"
"fd96bbbe9955e2ddbf47187b1f71d62945773962b225921e54be7c090f7aaf51","1,4878E+12",1,"none",108,10,8,"probably",12396,"none"
"fd96bbbe9955e2ddbf47187b1f71d62945773962b225921e54be7c090f7aaf51","1,4878E+12",2,"none",105,10,5,"possibly",8587,"none"
"fd96bbbe9955e2ddbf47187b1f71d62945773962b225921e54be7c090f7aaf51","1,4878E+12",3,"none",102,10,2,"probablyNot",7366,"none"
"fd96bbbe9955e2ddbf47187b1f71d62945773962b225921e54be7c090f7aaf51","1,4878E+12",4,"high",22,2,2,"possibly",6951,"high"
"fd96bbbe9955e2ddbf47187b1f71d62945773962b225921e54be7c090f7aaf51","1,4878E+12",5,"high",41,4,1,"probablyNot",11284,"high"
"fd96bbbe9955e2ddbf47187b1f71d62945773962b225921e54be7c090f7aaf51","1,4878E+12",6,"low",82,8,2,"probablyNot",5637,"low"
"fd96bbbe9955e2ddbf47187b1f71d62945773962b225921e54be7c090f7aaf51","1,4878E+12",7,"low",88,8,8,"certainly",4022,"low"
"fd96bbbe9955e2ddbf47187b1f71d62945773962b225921e54be7c090f7aaf51","1,4878E+12",8,"low",84,8,4,"possibly",6085,"low"
"fd96bbbe9955e2ddbf47187b1f71d62945773962b225921e54be7c090f7aaf51","1,4878E+12",9,"high",20,2,0,"possibly",5835,"high"
"e068bf45f86879112d4639f95a53ad1eacd5a3f465024e59c10b9063df0fe0e5","1,4878E+12",1,"low",84,8,4,"possibly",12468,"low"
"e068bf45f86879112d4639f95a53ad1eacd5a3f465024e59c10b9063df0fe0e5","1,4878E+12",2,"high",22,2,2,"probably",5613,"high"
"e068bf45f86879112d4639f95a53ad1eacd5a3f465024e59c10b9063df0fe0e5","1,4878E+12",3,"high",42,4,2,"possibly",7275,"high"
"e068bf45f86879112d4639f95a53ad1eacd5a3f465024e59c10b9063df0fe0e5","1,4878E+12",4,"none",102,10,2,"probablyNot",7657,"none"
"e068bf45f86879112d4639f95a53ad1eacd5a3f465024e59c10b9063df0fe0e5","1,4878E+12",5,"low",88,8,8,"certainly",3611,"low"
"e068bf45f86879112d4639f95a53ad1eacd5a3f465024e59c10b9063df0fe0e5","1,4878E+12",6,"none",108,10,8,"probably",4900,"none"
"e068bf45f86879112d4639f95a53ad1eacd5a3f465024e59c10b9063df0fe0e5","1,4878E+12",7,"none",103,10,3,"probablyNot",4541,"none"
"e068bf45f86879112d4639f95a53ad1eacd5a3f465024e59c10b9063df0fe0e5","1,4878E+12",8,"high",43,4,3,"probably",3852,"high"
"e068bf45f86879112d4639f95a53ad1eacd5a3f465024e59c10b9063df0fe0e5","1,4878E+12",9,"low",80,8,0,"certainlyNot",11633,"low"
"55abbe9e9d2868a460eb3e0d280713912a076afacf677333b57ab77d8c622e05","1,4878E+12",1,"none",103,10,3,"probablyNot",13305,"none"
"55abbe9e9d2868a460eb3e0d280713912a076afacf677333b57ab77d8c622e05","1,4878E+12",2,"none",102,10,2,"probablyNot",13471,"none"
"55abbe9e9d2868a460eb3e0d280713912a076afacf677333b57ab77d8c622e05","1,4878E+12",3,"high",43,4,3,"possibly",11857,"high"
"55abbe9e9d2868a460eb3e0d280713912a076afacf677333b57ab77d8c622e05","1,4878E+12",4,"high",22,2,2,"probably",9782,"high"
"55abbe9e9d2868a460eb3e0d280713912a076afacf677333b57ab77d8c622e05","1,4878E+12",5,"low",80,8,0,"certainlyNot",3614,"low"
"55abbe9e9d2868a460eb3e0d280713912a076afacf677333b57ab77d8c622e05","1,4878E+12",6,"high",20,2,0,"probablyNot",6358,"high"
"55abbe9e9d2868a460eb3e0d280713912a076afacf677333b57ab77d8c622e05","1,4878E+12",7,"low",88,8,8,"certainly",7038,"low"
"55abbe9e9d2868a460eb3e0d280713912a076afacf677333b57ab77d8c622e05","1,4878E+12",8,"none",108,10,8,"probably",5246,"none"
"55abbe9e9d2868a460eb3e0d280713912a076afacf677333b57ab77d8c622e05","1,4878E+12",9,"low",82,8,2,"probablyNot",6566,"low"
"8203fd0f9bd5136443baa6bea23626ed68cd6892e65f38e90318223e1fc54755","1,4878E+12",1,"high",43,4,3,"probably",8792,"high"
"8203fd0f9bd5136443baa6bea23626ed68cd6892e65f38e90318223e1fc54755","1,4878E+12",2,"low",82,8,2,"probablyNot",4556,"low"
"8203fd0f9bd5136443baa6bea23626ed68cd6892e65f38e90318223e1fc54755","1,4878E+12",3,"none",102,10,2,"probablyNot",4200,"none"
"8203fd0f9bd5136443baa6bea23626ed68cd6892e65f38e90318223e1fc54755","1,4878E+12",4,"low",80,8,0,"probablyNot",6440,"low"
"8203fd0f9bd5136443baa6bea23626ed68cd6892e65f38e90318223e1fc54755","1,4878E+12",5,"none",108,10,8,"probably",11363,"none"
"8203fd0f9bd5136443baa6bea23626ed68cd6892e65f38e90318223e1fc54755","1,4878E+12",6,"high",22,2,2,"possibly",4903,"high"
"8203fd0f9bd5136443baa6bea23626ed68cd6892e65f38e90318223e1fc54755","1,4878E+12",7,"low",86,8,6,"probably",6566,"low"
"8203fd0f9bd5136443baa6bea23626ed68cd6892e65f38e90318223e1fc54755","1,4878E+12",8,"none",103,10,3,"probablyNot",4448,"none"
"8203fd0f9bd5136443baa6bea23626ed68cd6892e65f38e90318223e1fc54755","1,4878E+12",9,"high",42,4,2,"possibly",6256,"high"
"b42db163386d22c173965fb5d3689ce45e0d271a870f0bd36a2ebd0c9e7020ef","1,4878E+12",1,"none",108,10,8,"probably",13195,"none"
"b42db163386d22c173965fb5d3689ce45e0d271a870f0bd36a2ebd0c9e7020ef","1,4878E+12",2,"low",86,8,6,"possibly",55197,"low"
"b42db163386d22c173965fb5d3689ce45e0d271a870f0bd36a2ebd0c9e7020ef","1,4878E+12",3,"high",20,2,0,"probablyNot",7175,"high"
"b42db163386d22c173965fb5d3689ce45e0d271a870f0bd36a2ebd0c9e7020ef","1,4878E+12",4,"high",22,2,2,"possibly",3251,"high"
"b42db163386d22c173965fb5d3689ce45e0d271a870f0bd36a2ebd0c9e7020ef","1,4878E+12",5,"low",84,8,4,"possibly",4859,"low"
"b42db163386d22c173965fb5d3689ce45e0d271a870f0bd36a2ebd0c9e7020ef","1,4878E+12",6,"high",42,4,2,"possibly",2707,"high"
"b42db163386d22c173965fb5d3689ce45e0d271a870f0bd36a2ebd0c9e7020ef","1,4878E+12",7,"none",103,10,3,"probablyNot",4063,"none"
"b42db163386d22c173965fb5d3689ce45e0d271a870f0bd36a2ebd0c9e7020ef","1,4878E+12",8,"low",88,8,8,"certainly",4755,"low"
"b42db163386d22c173965fb5d3689ce45e0d271a870f0bd36a2ebd0c9e7020ef","1,4878E+12",9,"none",105,10,5,"possibly",3777,"none"
"457b8ef5159e109df5b2b0e241513931830285bc1b0012a214350ee5f36375ad","1,4878E+12",1,"low",88,8,8,"probably",14722,"low"
"457b8ef5159e109df5b2b0e241513931830285bc1b0012a214350ee5f36375ad","1,4878E+12",2,"low",82,8,2,"probablyNot",8473,"low"
"457b8ef5159e109df5b2b0e241513931830285bc1b0012a214350ee5f36375ad","1,4878E+12",3,"none",103,10,3,"possibly",13131,"none"
"457b8ef5159e109df5b2b0e241513931830285bc1b0012a214350ee5f36375ad","1,4878E+12",4,"low",80,8,0,"probably",6588,"low"
"457b8ef5159e109df5b2b0e241513931830285bc1b0012a214350ee5f36375ad","1,4878E+12",5,"high",20,2,0,"probablyNot",9883,"high"
"457b8ef5159e109df5b2b0e241513931830285bc1b0012a214350ee5f36375ad","1,4878E+12",6,"none",105,10,5,"probably",6656,"none"
"457b8ef5159e109df5b2b0e241513931830285bc1b0012a214350ee5f36375ad","1,4878E+12",7,"high",41,4,1,"probablyNot",88438,"high"
"457b8ef5159e109df5b2b0e241513931830285bc1b0012a214350ee5f36375ad","1,4878E+12",8,"none",107,10,7,"probably",7173,"none"
"457b8ef5159e109df5b2b0e241513931830285bc1b0012a214350ee5f36375ad","1,4878E+12",9,"high",42,4,2,"possibly",15219,"high"
"a3a04cad003c411032669b339d812ce3df8f69e441fa4c1d99d5be1455d3ab71","1,48781E+12",1,"high",42,4,2,"possibly",193758,"high"
"a3a04cad003c411032669b339d812ce3df8f69e441fa4c1d99d5be1455d3ab71","1,48781E+12",2,"high",20,2,0,"probablyNot",2732,"high"
"a3a04cad003c411032669b339d812ce3df8f69e441fa4c1d99d5be1455d3ab71","1,48781E+12",3,"high",41,4,1,"probably",1425,"high"
"a3a04cad003c411032669b339d812ce3df8f69e441fa4c1d99d5be1455d3ab71","1,48781E+12",4,"none",107,10,7,"certainlyNot",1246,"none"
"a3a04cad003c411032669b339d812ce3df8f69e441fa4c1d99d5be1455d3ab71","1,48781E+12",5,"low",80,8,0,"probablyNot",1586,"low"
"a3a04cad003c411032669b339d812ce3df8f69e441fa4c1d99d5be1455d3ab71","1,48781E+12",6,"low",84,8,4,"possibly",1366,"low"
"a3a04cad003c411032669b339d812ce3df8f69e441fa4c1d99d5be1455d3ab71","1,48781E+12",7,"none",103,10,3,"probablyNot",1547,"none"
"a3a04cad003c411032669b339d812ce3df8f69e441fa4c1d99d5be1455d3ab71","1,48781E+12",8,"none",102,10,2,"possibly",2230,"none"
"a3a04cad003c411032669b339d812ce3df8f69e441fa4c1d99d5be1455d3ab71","1,48781E+12",9,"low",82,8,2,"probablyNot",3736,"low"
"64b9a5355070e8590fa59e0e5594d7d84361ca838ecd872f0b7239000ee681c9","1,4878E+12",1,"low",82,8,2,"probablyNot",7268,"low"
"64b9a5355070e8590fa59e0e5594d7d84361ca838ecd872f0b7239000ee681c9","1,4878E+12",2,"high",42,4,2,"probablyNot",4715,"high"
"64b9a5355070e8590fa59e0e5594d7d84361ca838ecd872f0b7239000ee681c9","1,4878E+12",3,"none",105,10,5,"possibly",6539,"none"
"64b9a5355070e8590fa59e0e5594d7d84361ca838ecd872f0b7239000ee681c9","1,4878E+12",4,"high",22,2,2,"possibly",3985,"high"
"64b9a5355070e8590fa59e0e5594d7d84361ca838ecd872f0b7239000ee681c9","1,4878E+12",5,"low",86,8,6,"probably",4175,"low"
"64b9a5355070e8590fa59e0e5594d7d84361ca838ecd872f0b7239000ee681c9","1,4878E+12",6,"none",108,10,8,"probably",3663,"none"
"64b9a5355070e8590fa59e0e5594d7d84361ca838ecd872f0b7239000ee681c9","1,4878E+12",7,"high",20,2,0,"possibly",4945,"high"
"64b9a5355070e8590fa59e0e5594d7d84361ca838ecd872f0b7239000ee681c9","1,4878E+12",8,"low",80,8,0,"probablyNot",3468,"low"
"64b9a5355070e8590fa59e0e5594d7d84361ca838ecd872f0b7239000ee681c9","1,4878E+12",9,"none",103,10,3,"possibly",4166,"none"
"b7da1b51e876fadf8af744b72454a0c1513ddd624ca2958e58f1d9a188c88416","1,48788E+12",1,"low",80,8,0,"certainlyNot",18453,"low"
"b7da1b51e876fadf8af744b72454a0c1513ddd624ca2958e58f1d9a188c88416","1,48788E+12",2,"high",22,2,2,"possibly",16087,"high"
"b7da1b51e876fadf8af744b72454a0c1513ddd624ca2958e58f1d9a188c88416","1,48788E+12",3,"low",84,8,4,"probably",13597,"low"
"b7da1b51e876fadf8af744b72454a0c1513ddd624ca2958e58f1d9a188c88416","1,48788E+12",4,"none",105,10,5,"possibly",11599,"none"
"b7da1b51e876fadf8af744b72454a0c1513ddd624ca2958e58f1d9a188c88416","1,48788E+12",5,"high",41,4,1,"probablyNot",7741,"high"
"b7da1b51e876fadf8af744b72454a0c1513ddd624ca2958e58f1d9a188c88416","1,48788E+12",6,"none",103,10,3,"certainlyNot",8457,"none"
"b7da1b51e876fadf8af744b72454a0c1513ddd624ca2958e58f1d9a188c88416","1,48788E+12",7,"none",108,10,8,"certainly",3283,"none"
"b7da1b51e876fadf8af744b72454a0c1513ddd624ca2958e58f1d9a188c88416","1,48788E+12",8,"high",20,2,0,"possibly",6708,"high"
"b7da1b51e876fadf8af744b72454a0c1513ddd624ca2958e58f1d9a188c88416","1,48788E+12",9,"low",86,8,6,"probably",7662,"low"
"1a28d490a67c9c3c5f06e5f51ff8724551abf7d389fbafb848d9bb7f114c9cdb","1,48781E+12",1,"high",43,4,3,"possibly",12766,"high"
"1a28d490a67c9c3c5f06e5f51ff8724551abf7d389fbafb848d9bb7f114c9cdb","1,48781E+12",2,"none",107,10,7,"probably",8557,"none"
"1a28d490a67c9c3c5f06e5f51ff8724551abf7d389fbafb848d9bb7f114c9cdb","1,48781E+12",3,"low",82,8,2,"probablyNot",12269,"low"
"1a28d490a67c9c3c5f06e5f51ff8724551abf7d389fbafb848d9bb7f114c9cdb","1,48781E+12",4,"high",41,4,1,"certainly",10954,"high"
"1a28d490a67c9c3c5f06e5f51ff8724551abf7d389fbafb848d9bb7f114c9cdb","1,48781E+12",5,"none",105,10,5,"possibly",7370,"none"
"1a28d490a67c9c3c5f06e5f51ff8724551abf7d389fbafb848d9bb7f114c9cdb","1,48781E+12",6,"low",80,8,0,"certainlyNot",7062,"low"
"1a28d490a67c9c3c5f06e5f51ff8724551abf7d389fbafb848d9bb7f114c9cdb","1,48781E+12",7,"low",88,8,8,"probably",6081,"low"
"1a28d490a67c9c3c5f06e5f51ff8724551abf7d389fbafb848d9bb7f114c9cdb","1,48781E+12",8,"none",102,10,2,"probably",5460,"none"
"1a28d490a67c9c3c5f06e5f51ff8724551abf7d389fbafb848d9bb7f114c9cdb","1,48781E+12",9,"high",42,4,2,"possibly",4102,"high"
"7b5201aee2fa1898ecae22b93d87f7d36581cd45608651ca7bba07ee36ee0188","1,4878E+12",1,"none",107,10,7,"probably",33271,"none"
"7b5201aee2fa1898ecae22b93d87f7d36581cd45608651ca7bba07ee36ee0188","1,4878E+12",2,"none",105,10,5,"probably",14220,"none"
"7b5201aee2fa1898ecae22b93d87f7d36581cd45608651ca7bba07ee36ee0188","1,4878E+12",3,"high",43,4,3,"probably",12470,"high"
"7b5201aee2fa1898ecae22b93d87f7d36581cd45608651ca7bba07ee36ee0188","1,4878E+12",4,"low",84,8,4,"possibly",8746,"low"
"7b5201aee2fa1898ecae22b93d87f7d36581cd45608651ca7bba07ee36ee0188","1,4878E+12",5,"high",42,4,2,"possibly",8402,"high"
"7b5201aee2fa1898ecae22b93d87f7d36581cd45608651ca7bba07ee36ee0188","1,4878E+12",6,"none",102,10,2,"probablyNot",6519,"none"
"7b5201aee2fa1898ecae22b93d87f7d36581cd45608651ca7bba07ee36ee0188","1,4878E+12",7,"high",41,4,1,"probablyNot",8923,"high"
"7b5201aee2fa1898ecae22b93d87f7d36581cd45608651ca7bba07ee36ee0188","1,4878E+12",8,"low",80,8,0,"certainlyNot",10871,"low"
"7b5201aee2fa1898ecae22b93d87f7d36581cd45608651ca7bba07ee36ee0188","1,4878E+12",9,"low",82,8,2,"probablyNot",6970,"low"
"c4bd15d275af63054757c055394c73e1d37e4e283166188baf909b139bf00fb8","1,4878E+12",1,"low",88,8,8,"probably",17769,"low"
"c4bd15d275af63054757c055394c73e1d37e4e283166188baf909b139bf00fb8","1,4878E+12",2,"none",108,10,8,"probably",13090,"none"
"c4bd15d275af63054757c055394c73e1d37e4e283166188baf909b139bf00fb8","1,4878E+12",3,"low",80,8,0,"probablyNot",5967,"low"
"c4bd15d275af63054757c055394c73e1d37e4e283166188baf909b139bf00fb8","1,4878E+12",4,"none",105,10,5,"possibly",8376,"none"
"c4bd15d275af63054757c055394c73e1d37e4e283166188baf909b139bf00fb8","1,4878E+12",5,"low",82,8,2,"probablyNot",8846,"low"
"c4bd15d275af63054757c055394c73e1d37e4e283166188baf909b139bf00fb8","1,4878E+12",6,"high",43,4,3,"possibly",16857,"high"
"c4bd15d275af63054757c055394c73e1d37e4e283166188baf909b139bf00fb8","1,4878E+12",7,"none",103,10,3,"probablyNot",8335,"none"
"c4bd15d275af63054757c055394c73e1d37e4e283166188baf909b139bf00fb8","1,4878E+12",8,"high",22,2,2,"possibly",8572,"high"
"c4bd15d275af63054757c055394c73e1d37e4e283166188baf909b139bf00fb8","1,4878E+12",9,"high",41,4,1,"possibly",5120,"high"
"aaa5dd020158806802f414e4f8368adf6b0cdfbe06284bf1d09f65ca48c546ab","1,48788E+12",1,"none",105,10,5,"certainly",16920,"none"
"aaa5dd020158806802f414e4f8368adf6b0cdfbe06284bf1d09f65ca48c546ab","1,48788E+12",2,"low",88,8,8,"certainly",7180,"low"
"aaa5dd020158806802f414e4f8368adf6b0cdfbe06284bf1d09f65ca48c546ab","1,48788E+12",3,"high",41,4,1,"certainlyNot",4522,"high"
"aaa5dd020158806802f414e4f8368adf6b0cdfbe06284bf1d09f65ca48c546ab","1,48788E+12",4,"low",82,8,2,"possibly",4760,"low"
"aaa5dd020158806802f414e4f8368adf6b0cdfbe06284bf1d09f65ca48c546ab","1,48788E+12",5,"high",20,2,0,"probablyNot",4546,"high"
"aaa5dd020158806802f414e4f8368adf6b0cdfbe06284bf1d09f65ca48c546ab","1,48788E+12",6,"none",103,10,3,"probably",4301,"none"
"aaa5dd020158806802f414e4f8368adf6b0cdfbe06284bf1d09f65ca48c546ab","1,48788E+12",7,"none",102,10,2,"probablyNot",2959,"none"
"aaa5dd020158806802f414e4f8368adf6b0cdfbe06284bf1d09f65ca48c546ab","1,48788E+12",8,"high",42,4,2,"probablyNot",2664,"high"
"aaa5dd020158806802f414e4f8368adf6b0cdfbe06284bf1d09f65ca48c546ab","1,48788E+12",9,"low",86,8,6,"probably",3093,"low"
"08c9005a30aea576f73893c22584fa019272200767c1b2d00586b7a581cd30a9","1,4878E+12",1,"none",103,10,3,"probablyNot",17515,"none"
"08c9005a30aea576f73893c22584fa019272200767c1b2d00586b7a581cd30a9","1,4878E+12",2,"high",42,4,2,"possibly",17488,"high"
"08c9005a30aea576f73893c22584fa019272200767c1b2d00586b7a581cd30a9","1,4878E+12",3,"none",105,10,5,"possibly",17122,"none"
"08c9005a30aea576f73893c22584fa019272200767c1b2d00586b7a581cd30a9","1,4878E+12",4,"low",84,8,4,"possibly",16610,"low"
"08c9005a30aea576f73893c22584fa019272200767c1b2d00586b7a581cd30a9","1,4878E+12",5,"low",82,8,2,"probablyNot",8960,"low"
"08c9005a30aea576f73893c22584fa019272200767c1b2d00586b7a581cd30a9","1,4878E+12",6,"low",80,8,0,"probablyNot",13189,"low"
"08c9005a30aea576f73893c22584fa019272200767c1b2d00586b7a581cd30a9","1,4878E+12",7,"high",20,2,0,"possibly",5833,"high"
"08c9005a30aea576f73893c22584fa019272200767c1b2d00586b7a581cd30a9","1,4878E+12",8,"none",108,10,8,"probably",10600,"none"
"08c9005a30aea576f73893c22584fa019272200767c1b2d00586b7a581cd30a9","1,4878E+12",9,"high",43,4,3,"possibly",5687,"high"
"4d6befbd512c6fbad58afe1d88e768c478dda2d76cefb74205ec187b59105362","1,4878E+12",1,"low",88,8,8,"certainly",14413,"low"
"4d6befbd512c6fbad58afe1d88e768c478dda2d76cefb74205ec187b59105362","1,4878E+12",2,"low",80,8,0,"certainlyNot",15486,"low"
"4d6befbd512c6fbad58afe1d88e768c478dda2d76cefb74205ec187b59105362","1,4878E+12",3,"high",42,4,2,"possibly",11169,"high"
"4d6befbd512c6fbad58afe1d88e768c478dda2d76cefb74205ec187b59105362","1,4878E+12",4,"none",105,10,5,"possibly",12209,"none"
"4d6befbd512c6fbad58afe1d88e768c478dda2d76cefb74205ec187b59105362","1,4878E+12",5,"none",102,10,2,"probablyNot",20322,"none"
"4d6befbd512c6fbad58afe1d88e768c478dda2d76cefb74205ec187b59105362","1,4878E+12",6,"none",103,10,3,"probablyNot",15678,"none"
"4d6befbd512c6fbad58afe1d88e768c478dda2d76cefb74205ec187b59105362","1,4878E+12",7,"high",22,2,2,"possibly",12864,"high"
"4d6befbd512c6fbad58afe1d88e768c478dda2d76cefb74205ec187b59105362","1,4878E+12",8,"high",41,4,1,"possibly",13857,"high"
"4d6befbd512c6fbad58afe1d88e768c478dda2d76cefb74205ec187b59105362","1,4878E+12",9,"low",82,8,2,"probablyNot",8324,"low"
"994c1194d4fcc93a3cafe6b834a1ccfa8ba12598de4de66d57b661a52699d007","1,4878E+12",1,"none",107,10,7,"probably",5199,"none"
"994c1194d4fcc93a3cafe6b834a1ccfa8ba12598de4de66d57b661a52699d007","1,4878E+12",2,"high",20,2,0,"possibly",7434,"high"
"994c1194d4fcc93a3cafe6b834a1ccfa8ba12598de4de66d57b661a52699d007","1,4878E+12",3,"none",102,10,2,"probablyNot",4570,"none"
"994c1194d4fcc93a3cafe6b834a1ccfa8ba12598de4de66d57b661a52699d007","1,4878E+12",4,"low",88,8,8,"certainly",3503,"low"
"994c1194d4fcc93a3cafe6b834a1ccfa8ba12598de4de66d57b661a52699d007","1,4878E+12",5,"high",22,2,2,"possibly",3816,"high"
"994c1194d4fcc93a3cafe6b834a1ccfa8ba12598de4de66d57b661a52699d007","1,4878E+12",6,"none",103,10,3,"possibly",4616,"none"
"994c1194d4fcc93a3cafe6b834a1ccfa8ba12598de4de66d57b661a52699d007","1,4878E+12",7,"low",84,8,4,"possibly",3631,"low"
"994c1194d4fcc93a3cafe6b834a1ccfa8ba12598de4de66d57b661a52699d007","1,4878E+12",8,"high",42,4,2,"possibly",2552,"high"
"994c1194d4fcc93a3cafe6b834a1ccfa8ba12598de4de66d57b661a52699d007","1,4878E+12",9,"low",80,8,0,"certainlyNot",5732,"low"
"ad22990d4f8d5ac57f674562e38f6ce4586a4f28d3861ebaeecfcd2db122b428","1,48782E+12",1,"low",88,8,8,"probably",10068,"low"
"ad22990d4f8d5ac57f674562e38f6ce4586a4f28d3861ebaeecfcd2db122b428","1,48782E+12",2,"high",41,4,1,"probablyNot",12670,"high"
"ad22990d4f8d5ac57f674562e38f6ce4586a4f28d3861ebaeecfcd2db122b428","1,48782E+12",3,"none",108,10,8,"probably",4814,"none"
"ad22990d4f8d5ac57f674562e38f6ce4586a4f28d3861ebaeecfcd2db122b428","1,48782E+12",4,"none",102,10,2,"probablyNot",8573,"none"
"ad22990d4f8d5ac57f674562e38f6ce4586a4f28d3861ebaeecfcd2db122b428","1,48782E+12",5,"high",43,4,3,"possibly",3822,"high"
"ad22990d4f8d5ac57f674562e38f6ce4586a4f28d3861ebaeecfcd2db122b428","1,48782E+12",6,"low",80,8,0,"certainlyNot",3470,"low"
"ad22990d4f8d5ac57f674562e38f6ce4586a4f28d3861ebaeecfcd2db122b428","1,48782E+12",7,"low",82,8,2,"probablyNot",2900,"low"
"ad22990d4f8d5ac57f674562e38f6ce4586a4f28d3861ebaeecfcd2db122b428","1,48782E+12",8,"none",107,10,7,"probably",2533,"none"
"ad22990d4f8d5ac57f674562e38f6ce4586a4f28d3861ebaeecfcd2db122b428","1,48782E+12",9,"high",42,4,2,"possibly",3559,"high"
"50212d2dfc40704e4598f401e43ef71f17859bbf059e75d37f445d93954f4ef5","1,4878E+12",1,"high",22,2,2,"possibly",17102,"high"
"50212d2dfc40704e4598f401e43ef71f17859bbf059e75d37f445d93954f4ef5","1,4878E+12",2,"high",43,4,3,"possibly",12864,"high"
"50212d2dfc40704e4598f401e43ef71f17859bbf059e75d37f445d93954f4ef5","1,4878E+12",3,"low",84,8,4,"possibly",10885,"low"
"50212d2dfc40704e4598f401e43ef71f17859bbf059e75d37f445d93954f4ef5","1,4878E+12",4,"none",107,10,7,"probably",13267,"none"
"50212d2dfc40704e4598f401e43ef71f17859bbf059e75d37f445d93954f4ef5","1,4878E+12",5,"high",42,4,2,"possibly",6048,"high"
"50212d2dfc40704e4598f401e43ef71f17859bbf059e75d37f445d93954f4ef5","1,4878E+12",6,"low",82,8,2,"probablyNot",11469,"low"
"50212d2dfc40704e4598f401e43ef71f17859bbf059e75d37f445d93954f4ef5","1,4878E+12",7,"none",102,10,2,"probablyNot",8116,"none"
"50212d2dfc40704e4598f401e43ef71f17859bbf059e75d37f445d93954f4ef5","1,4878E+12",8,"none",103,10,3,"probablyNot",12717,"none"
"50212d2dfc40704e4598f401e43ef71f17859bbf059e75d37f445d93954f4ef5","1,4878E+12",9,"low",88,8,8,"probably",8931,"low"
"f6ed49aeae7f69ed8d50e192d2d1525b04c9c5579bb2d61e2076eeb52dfae69d","1,48782E+12",1,"high",22,2,2,"probablyNot",11225,"high"
"f6ed49aeae7f69ed8d50e192d2d1525b04c9c5579bb2d61e2076eeb52dfae69d","1,48782E+12",2,"low",80,8,0,"certainly",24829,"low"
"f6ed49aeae7f69ed8d50e192d2d1525b04c9c5579bb2d61e2076eeb52dfae69d","1,48782E+12",3,"high",20,2,0,"probablyNot",3017,"high"
"f6ed49aeae7f69ed8d50e192d2d1525b04c9c5579bb2d61e2076eeb52dfae69d","1,48782E+12",4,"low",88,8,8,"probably",2631,"low"
"f6ed49aeae7f69ed8d50e192d2d1525b04c9c5579bb2d61e2076eeb52dfae69d","1,48782E+12",5,"high",42,4,2,"possibly",3074,"high"
"f6ed49aeae7f69ed8d50e192d2d1525b04c9c5579bb2d61e2076eeb52dfae69d","1,48782E+12",6,"none",105,10,5,"possibly",5422,"none"
"f6ed49aeae7f69ed8d50e192d2d1525b04c9c5579bb2d61e2076eeb52dfae69d","1,48782E+12",7,"none",103,10,3,"probablyNot",60320,"none"
"f6ed49aeae7f69ed8d50e192d2d1525b04c9c5579bb2d61e2076eeb52dfae69d","1,48782E+12",8,"none",108,10,8,"probably",2639,"none"
"f6ed49aeae7f69ed8d50e192d2d1525b04c9c5579bb2d61e2076eeb52dfae69d","1,48782E+12",9,"low",86,8,6,"probably",2423,"low"
"7f3c60402af35ea49c70c6d18ffceb0df2d6aa6f0a232a0ded08794b94fa3c80","1,48789E+12",1,"low",86,8,6,"probably",18021,"low"
"7f3c60402af35ea49c70c6d18ffceb0df2d6aa6f0a232a0ded08794b94fa3c80","1,48789E+12",2,"high",42,4,2,"possibly",9318,"high"
"7f3c60402af35ea49c70c6d18ffceb0df2d6aa6f0a232a0ded08794b94fa3c80","1,48789E+12",3,"none",102,10,2,"probablyNot",9063,"none"
"7f3c60402af35ea49c70c6d18ffceb0df2d6aa6f0a232a0ded08794b94fa3c80","1,48789E+12",4,"high",20,2,0,"possibly",6852,"high"
"7f3c60402af35ea49c70c6d18ffceb0df2d6aa6f0a232a0ded08794b94fa3c80","1,48789E+12",5,"high",43,4,3,"possibly",10191,"high"
"7f3c60402af35ea49c70c6d18ffceb0df2d6aa6f0a232a0ded08794b94fa3c80","1,48789E+12",6,"low",88,8,8,"probably",7204,"low"
"7f3c60402af35ea49c70c6d18ffceb0df2d6aa6f0a232a0ded08794b94fa3c80","1,48789E+12",7,"low",82,8,2,"probablyNot",16946,"low"
"7f3c60402af35ea49c70c6d18ffceb0df2d6aa6f0a232a0ded08794b94fa3c80","1,48789E+12",8,"none",105,10,5,"possibly",27125,"none"
"7f3c60402af35ea49c70c6d18ffceb0df2d6aa6f0a232a0ded08794b94fa3c80","1,48789E+12",9,"none",107,10,7,"probably",25017,"none"
"e13e01f3ca9417f874ce86348fb5cce0521192579ccb987711c56de04cd78d4f","1,48781E+12",1,"none",103,10,3,"possibly",13414,"none"
"e13e01f3ca9417f874ce86348fb5cce0521192579ccb987711c56de04cd78d4f","1,48781E+12",2,"low",86,8,6,"probably",6909,"low"
"e13e01f3ca9417f874ce86348fb5cce0521192579ccb987711c56de04cd78d4f","1,48781E+12",3,"none",102,10,2,"possibly",5071,"none"
"e13e01f3ca9417f874ce86348fb5cce0521192579ccb987711c56de04cd78d4f","1,48781E+12",4,"low",82,8,2,"probablyNot",15048,"low"
"e13e01f3ca9417f874ce86348fb5cce0521192579ccb987711c56de04cd78d4f","1,48781E+12",5,"none",105,10,5,"possibly",6038,"none"
"e13e01f3ca9417f874ce86348fb5cce0521192579ccb987711c56de04cd78d4f","1,48781E+12",6,"high",20,2,0,"certainlyNot",4556,"high"
"e13e01f3ca9417f874ce86348fb5cce0521192579ccb987711c56de04cd78d4f","1,48781E+12",7,"high",43,4,3,"possibly",5386,"high"
"e13e01f3ca9417f874ce86348fb5cce0521192579ccb987711c56de04cd78d4f","1,48781E+12",8,"high",42,4,2,"probablyNot",3823,"high"
"e13e01f3ca9417f874ce86348fb5cce0521192579ccb987711c56de04cd78d4f","1,48781E+12",9,"low",84,8,4,"possibly",4171,"low"
