"X";"id";"itemTime";"trialnumber";"value";"access";"observation";"answer1";"answer2";"RT";"answer3";"answer.full";"uncertainty"
1;"e486b0bf69755750cd0301585230916c6974b12083d5bf792088821462afe71d";1456171479347;1;107;10;7;"is_certainly";"probable";18214;"likely";"is_certainly likely";"none"
2;"e486b0bf69755750cd0301585230916c6974b12083d5bf792088821462afe71d";1456171487254;2;41;4;1;"might_be";"possible";7905;"possible";"might_be possible";"high"
3;"e486b0bf69755750cd0301585230916c6974b12083d5bf792088821462afe71d";1456171502803;3;42;4;2;"is_certainly";"possible";15547;"possible";"is_certainly possible";"high"
4;"e486b0bf69755750cd0301585230916c6974b12083d5bf792088821462afe71d";1456171511317;4;108;10;8;"is";"likely";8508;"likely";"is likely";"none"
5;"e486b0bf69755750cd0301585230916c6974b12083d5bf792088821462afe71d";1456171520312;5;84;8;4;"is";"possible";8993;"possible";"is possible";"low"
6;"e486b0bf69755750cd0301585230916c6974b12083d5bf792088821462afe71d";1456171529369;6;105;10;5;"is_certainly";"likely";9055;"likely";"is_certainly likely";"none"
7;"e486b0bf69755750cd0301585230916c6974b12083d5bf792088821462afe71d";1456171535521;7;102;10;2;"is";"unlikely";6150;"unlikely";"is unlikely";"none"
8;"e486b0bf69755750cd0301585230916c6974b12083d5bf792088821462afe71d";1456171543632;8;80;8;0;"is";"unlikely";8109;"unlikely";"is unlikely";"low"
9;"e486b0bf69755750cd0301585230916c6974b12083d5bf792088821462afe71d";1456171550110;9;43;4;3;"is_probably";"likely";6477;"likely";"is_probably likely";"high"
10;"e486b0bf69755750cd0301585230916c6974b12083d5bf792088821462afe71d";1456171566375;10;103;10;3;"might_be";"possible";16262;"possible";"might_be possible";"none"
11;"e486b0bf69755750cd0301585230916c6974b12083d5bf792088821462afe71d";1456171572276;11;86;8;6;"is";"likely";5896;"likely";"is likely";"low"
12;"e486b0bf69755750cd0301585230916c6974b12083d5bf792088821462afe71d";1456171577713;12;82;8;2;"might_be";"possible";5435;"possible";"might_be possible";"low"
13;"fdc3a86cb3c73c660e17b0ecad6753a6d170a8ea0a6b2d3d6119a798a54719c0";1456178885616;1;86;8;6;"is_probably";"probable";18169;"likely";"is_probably likely";"low"
14;"fdc3a86cb3c73c660e17b0ecad6753a6d170a8ea0a6b2d3d6119a798a54719c0";1456178893945;2;84;8;4;"might_be";"possible";8327;"possible";"might_be possible";"low"
15;"fdc3a86cb3c73c660e17b0ecad6753a6d170a8ea0a6b2d3d6119a798a54719c0";1456178905165;3;103;10;3;"is_certainly";"probable";11218;"likely";"is_certainly likely";"none"
16;"fdc3a86cb3c73c660e17b0ecad6753a6d170a8ea0a6b2d3d6119a798a54719c0";1456178916580;4;43;4;3;"is_probably";"likely";11414;"likely";"is_probably likely";"high"
17;"fdc3a86cb3c73c660e17b0ecad6753a6d170a8ea0a6b2d3d6119a798a54719c0";1456178934408;5;105;10;5;"might_be";"possible";17826;"possible";"might_be possible";"none"
18;"fdc3a86cb3c73c660e17b0ecad6753a6d170a8ea0a6b2d3d6119a798a54719c0";1456178942727;6;88;8;8;"is_certainly";"probable";8317;"likely";"is_certainly likely";"low"
19;"fdc3a86cb3c73c660e17b0ecad6753a6d170a8ea0a6b2d3d6119a798a54719c0";1456178951907;7;80;8;0;"is_probably";"unlikely";9179;"unlikely";"is_probably unlikely";"low"
20;"fdc3a86cb3c73c660e17b0ecad6753a6d170a8ea0a6b2d3d6119a798a54719c0";1456178962273;8;102;10;2;"might_be";"unlikely";10364;"unlikely";"might_be unlikely";"none"
21;"fdc3a86cb3c73c660e17b0ecad6753a6d170a8ea0a6b2d3d6119a798a54719c0";1456178968975;9;42;4;2;"might_be";"possible";6701;"possible";"might_be possible";"high"
22;"fdc3a86cb3c73c660e17b0ecad6753a6d170a8ea0a6b2d3d6119a798a54719c0";1456178976298;10;82;8;2;"is_probably";"unlikely";7321;"unlikely";"is_probably unlikely";"low"
23;"fdc3a86cb3c73c660e17b0ecad6753a6d170a8ea0a6b2d3d6119a798a54719c0";1456178982661;11;20;2;0;"is_certainly";"unlikely";6361;"unlikely";"is_certainly unlikely";"high"
24;"fdc3a86cb3c73c660e17b0ecad6753a6d170a8ea0a6b2d3d6119a798a54719c0";1456178991304;12;107;10;7;"might_be";"probable";8642;"likely";"might_be likely";"none"
25;"c7b2acfeb111c1f786023cef0cbbe4d6cadcbd831863d40375698e3f78742e84";1456259814763;1;41;4;1;"might_be";"unlikely";30524;"unlikely";"might_be unlikely";"high"
26;"c7b2acfeb111c1f786023cef0cbbe4d6cadcbd831863d40375698e3f78742e84";1456259828445;2;108;10;8;"is_certainly";"likely";13667;"likely";"is_certainly likely";"none"
27;"c7b2acfeb111c1f786023cef0cbbe4d6cadcbd831863d40375698e3f78742e84";1456259838293;3;103;10;3;"is_certainly";"unlikely";9840;"unlikely";"is_certainly unlikely";"none"
28;"c7b2acfeb111c1f786023cef0cbbe4d6cadcbd831863d40375698e3f78742e84";1456259847412;4;105;10;5;"is_certainly";"possible";9112;"possible";"is_certainly possible";"none"
29;"c7b2acfeb111c1f786023cef0cbbe4d6cadcbd831863d40375698e3f78742e84";1456259860838;5;88;8;8;"is_certainly";"likely";13418;"likely";"is_certainly likely";"low"
30;"c7b2acfeb111c1f786023cef0cbbe4d6cadcbd831863d40375698e3f78742e84";1456259878779;6;42;4;2;"might_be";"possible";17935;"possible";"might_be possible";"high"
31;"c7b2acfeb111c1f786023cef0cbbe4d6cadcbd831863d40375698e3f78742e84";1456259885464;7;82;8;2;"might_be";"unlikely";6677;"unlikely";"might_be unlikely";"low"
32;"c7b2acfeb111c1f786023cef0cbbe4d6cadcbd831863d40375698e3f78742e84";1456259891792;8;86;8;6;"might_be";"likely";6316;"likely";"might_be likely";"low"
33;"c7b2acfeb111c1f786023cef0cbbe4d6cadcbd831863d40375698e3f78742e84";1456259914640;9;20;2;0;"might_be";"unlikely";22833;"unlikely";"might_be unlikely";"high"
34;"c7b2acfeb111c1f786023cef0cbbe4d6cadcbd831863d40375698e3f78742e84";1456259921234;10;107;10;7;"is";"likely";6582;"likely";"is likely";"none"
35;"c7b2acfeb111c1f786023cef0cbbe4d6cadcbd831863d40375698e3f78742e84";1456259929753;11;80;8;0;"is_probably";"unlikely";8511;"unlikely";"is_probably unlikely";"low"
36;"c7b2acfeb111c1f786023cef0cbbe4d6cadcbd831863d40375698e3f78742e84";1456259938849;12;84;8;4;"is";"possible";9089;"possible";"is possible";"low"
37;"0d5411de098dd19754444b8480eecee0c1fa6df062943d447e8a2faa38178158";1456169527715;1;107;10;7;"is";"probable";18724;"likely";"is likely";"none"
38;"0d5411de098dd19754444b8480eecee0c1fa6df062943d447e8a2faa38178158";1456169547091;2;105;10;5;"is";"possible";19370;"possible";"is possible";"none"
39;"0d5411de098dd19754444b8480eecee0c1fa6df062943d447e8a2faa38178158";1456169562507;3;20;2;0;"might_be";"possible";15398;"possible";"might_be possible";"high"
40;"0d5411de098dd19754444b8480eecee0c1fa6df062943d447e8a2faa38178158";1456169578195;4;84;8;4;"might_be";"possible";15671;"possible";"might_be possible";"low"
41;"0d5411de098dd19754444b8480eecee0c1fa6df062943d447e8a2faa38178158";1456169585924;5;108;10;8;"is";"probable";7722;"likely";"is likely";"none"
42;"0d5411de098dd19754444b8480eecee0c1fa6df062943d447e8a2faa38178158";1456169594179;6;102;10;2;"is";"unlikely";8250;"unlikely";"is unlikely";"none"
43;"0d5411de098dd19754444b8480eecee0c1fa6df062943d447e8a2faa38178158";1456169605203;7;86;8;6;"is_probably";"likely";11018;"likely";"is_probably likely";"low"
44;"0d5411de098dd19754444b8480eecee0c1fa6df062943d447e8a2faa38178158";1456169614195;8;43;4;3;"is";"probable";8986;"likely";"is likely";"high"
45;"0d5411de098dd19754444b8480eecee0c1fa6df062943d447e8a2faa38178158";1456169623404;9;88;8;8;"is_certainly";"likely";9202;"likely";"is_certainly likely";"low"
46;"0d5411de098dd19754444b8480eecee0c1fa6df062943d447e8a2faa38178158";1456169628221;10;22;2;2;"is";"possible";4810;"possible";"is possible";"high"
47;"0d5411de098dd19754444b8480eecee0c1fa6df062943d447e8a2faa38178158";1456169633309;11;42;4;2;"is";"possible";5082;"possible";"is possible";"high"
48;"0d5411de098dd19754444b8480eecee0c1fa6df062943d447e8a2faa38178158";1456169642484;12;82;8;2;"is_probably";"unlikely";9169;"unlikely";"is_probably unlikely";"low"
49;"7b7985520cbb2ce6bc8529ce833cedfb734aab6f1d680a1380cabe9cafaffdc4";1456170934510;1;86;8;6;"might_be";"possible";26178;"possible";"might_be possible";"low"
50;"7b7985520cbb2ce6bc8529ce833cedfb734aab6f1d680a1380cabe9cafaffdc4";1456170943596;2;82;8;2;"is_probably";"unlikely";9080;"unlikely";"is_probably unlikely";"low"
51;"7b7985520cbb2ce6bc8529ce833cedfb734aab6f1d680a1380cabe9cafaffdc4";1456170954493;3;42;4;2;"is";"possible";10893;"possible";"is possible";"high"
52;"7b7985520cbb2ce6bc8529ce833cedfb734aab6f1d680a1380cabe9cafaffdc4";1456170967372;4;80;8;0;"is_certainly";"unlikely";12875;"unlikely";"is_certainly unlikely";"low"
53;"7b7985520cbb2ce6bc8529ce833cedfb734aab6f1d680a1380cabe9cafaffdc4";1456170975834;5;105;10;5;"is";"possible";8458;"possible";"is possible";"none"
54;"7b7985520cbb2ce6bc8529ce833cedfb734aab6f1d680a1380cabe9cafaffdc4";1456170986719;6;88;8;8;"is_certainly";"likely";10881;"likely";"is_certainly likely";"low"
55;"7b7985520cbb2ce6bc8529ce833cedfb734aab6f1d680a1380cabe9cafaffdc4";1456170997507;7;20;2;0;"is_certainly";"unlikely";10784;"unlikely";"is_certainly unlikely";"high"
56;"7b7985520cbb2ce6bc8529ce833cedfb734aab6f1d680a1380cabe9cafaffdc4";1456171010489;8;103;10;3;"might_be";"possible";12978;"possible";"might_be possible";"none"
57;"7b7985520cbb2ce6bc8529ce833cedfb734aab6f1d680a1380cabe9cafaffdc4";1456171020739;9;107;10;7;"might_be";"probable";10247;"likely";"might_be likely";"none"
58;"7b7985520cbb2ce6bc8529ce833cedfb734aab6f1d680a1380cabe9cafaffdc4";1456171026289;10;102;10;2;"might_be";"unlikely";5547;"unlikely";"might_be unlikely";"none"
59;"7b7985520cbb2ce6bc8529ce833cedfb734aab6f1d680a1380cabe9cafaffdc4";1456171039692;11;22;2;2;"is_certainly";"likely";13399;"likely";"is_certainly likely";"high"
60;"7b7985520cbb2ce6bc8529ce833cedfb734aab6f1d680a1380cabe9cafaffdc4";1456171052768;12;41;4;1;"is";"unlikely";13062;"unlikely";"is unlikely";"high"
61;"239e1f089ea55d10eb0c8c8d4c726297940f8e8ada93acfc895b4a63f73385e3";1456169650404;1;86;8;6;"is_probably";"likely";17068;"likely";"is_probably likely";"low"
62;"239e1f089ea55d10eb0c8c8d4c726297940f8e8ada93acfc895b4a63f73385e3";1456169663326;2;103;10;3;"is";"unlikely";12920;"unlikely";"is unlikely";"none"
63;"239e1f089ea55d10eb0c8c8d4c726297940f8e8ada93acfc895b4a63f73385e3";1456169670126;3;43;4;3;"is_probably";"likely";6799;"likely";"is_probably likely";"high"
64;"239e1f089ea55d10eb0c8c8d4c726297940f8e8ada93acfc895b4a63f73385e3";1456169680425;4;105;10;5;"is";"possible";10299;"possible";"is possible";"none"
65;"239e1f089ea55d10eb0c8c8d4c726297940f8e8ada93acfc895b4a63f73385e3";1456169687952;5;82;8;2;"is";"unlikely";7526;"unlikely";"is unlikely";"low"
66;"239e1f089ea55d10eb0c8c8d4c726297940f8e8ada93acfc895b4a63f73385e3";1456169701311;6;102;10;2;"is_probably";"unlikely";13358;"unlikely";"is_probably unlikely";"none"
67;"239e1f089ea55d10eb0c8c8d4c726297940f8e8ada93acfc895b4a63f73385e3";1456169708300;7;41;4;1;"is";"unlikely";6988;"unlikely";"is unlikely";"high"
68;"239e1f089ea55d10eb0c8c8d4c726297940f8e8ada93acfc895b4a63f73385e3";1456169717066;8;22;2;2;"might_be";"probable";8765;"likely";"might_be likely";"high"
69;"239e1f089ea55d10eb0c8c8d4c726297940f8e8ada93acfc895b4a63f73385e3";1456169724801;9;107;10;7;"is";"likely";7734;"likely";"is likely";"none"
70;"239e1f089ea55d10eb0c8c8d4c726297940f8e8ada93acfc895b4a63f73385e3";1456169731545;10;80;8;0;"is";"unlikely";6742;"unlikely";"is unlikely";"low"
71;"239e1f089ea55d10eb0c8c8d4c726297940f8e8ada93acfc895b4a63f73385e3";1456169737247;11;42;4;2;"is";"possible";5701;"possible";"is possible";"high"
72;"239e1f089ea55d10eb0c8c8d4c726297940f8e8ada93acfc895b4a63f73385e3";1456169744799;12;88;8;8;"is";"probable";7551;"likely";"is likely";"low"
73;"ad331f1846ef9efe150df60cdd3d0690a0cea305cff0080d715f9b521d23ffcc";1455767769245;1;105;10;5;"is_certainly";"likely";22122;"likely";"is_certainly likely";"none"
74;"ad331f1846ef9efe150df60cdd3d0690a0cea305cff0080d715f9b521d23ffcc";1455767782187;2;107;10;7;"is_certainly";"likely";12937;"likely";"is_certainly likely";"none"
75;"ad331f1846ef9efe150df60cdd3d0690a0cea305cff0080d715f9b521d23ffcc";1455767792808;3;84;8;4;"might_be";"possible";10616;"possible";"might_be possible";"low"
76;"ad331f1846ef9efe150df60cdd3d0690a0cea305cff0080d715f9b521d23ffcc";1455767806140;4;80;8;0;"is_certainly";"unlikely";13327;"unlikely";"is_certainly unlikely";"low"
77;"ad331f1846ef9efe150df60cdd3d0690a0cea305cff0080d715f9b521d23ffcc";1455767813920;5;88;8;8;"is_certainly";"likely";7775;"likely";"is_certainly likely";"low"
78;"ad331f1846ef9efe150df60cdd3d0690a0cea305cff0080d715f9b521d23ffcc";1455767823935;6;102;10;2;"is_probably";"unlikely";10007;"unlikely";"is_probably unlikely";"none"
79;"ad331f1846ef9efe150df60cdd3d0690a0cea305cff0080d715f9b521d23ffcc";1455767840045;7;82;8;2;"might_be";"unlikely";16104;"unlikely";"might_be unlikely";"low"
80;"ad331f1846ef9efe150df60cdd3d0690a0cea305cff0080d715f9b521d23ffcc";1455767856457;8;103;10;3;"is_probably";"unlikely";16408;"unlikely";"is_probably unlikely";"none"
81;"ad331f1846ef9efe150df60cdd3d0690a0cea305cff0080d715f9b521d23ffcc";1455767866837;9;20;2;0;"might_be";"possible";10376;"possible";"might_be possible";"high"
82;"ad331f1846ef9efe150df60cdd3d0690a0cea305cff0080d715f9b521d23ffcc";1455767880562;10;42;4;2;"is_certainly";"unlikely";13716;"unlikely";"is_certainly unlikely";"high"
83;"ad331f1846ef9efe150df60cdd3d0690a0cea305cff0080d715f9b521d23ffcc";1455767888649;11;108;10;8;"is_certainly";"likely";8068;"likely";"is_certainly likely";"none"
84;"ad331f1846ef9efe150df60cdd3d0690a0cea305cff0080d715f9b521d23ffcc";1455767898451;12;86;8;6;"is_probably";"likely";9797;"likely";"is_probably likely";"low"
85;"7f69d4bb6381e8a03b0a4c4f40fe16628819b0bb1555eb3ae0615add91d53145";1456267040499;1;20;2;0;"is";"probable";4978;"likely";"is likely";"high"
86;"7f69d4bb6381e8a03b0a4c4f40fe16628819b0bb1555eb3ae0615add91d53145";1456267053988;2;80;8;0;"is_certainly";"likely";13487;"likely";"is_certainly likely";"low"
87;"7f69d4bb6381e8a03b0a4c4f40fe16628819b0bb1555eb3ae0615add91d53145";1456267060907;3;88;8;8;"is";"unlikely";6916;"unlikely";"is unlikely";"low"
88;"7f69d4bb6381e8a03b0a4c4f40fe16628819b0bb1555eb3ae0615add91d53145";1456267069742;4;86;8;6;"is_probably";"unlikely";8832;"unlikely";"is_probably unlikely";"low"
89;"7f69d4bb6381e8a03b0a4c4f40fe16628819b0bb1555eb3ae0615add91d53145";1456267076302;5;43;4;3;"is";"probable";6560;"likely";"is likely";"high"
90;"7f69d4bb6381e8a03b0a4c4f40fe16628819b0bb1555eb3ae0615add91d53145";1456267079862;6;42;4;2;"is";"probable";3559;"likely";"is likely";"high"
91;"7f69d4bb6381e8a03b0a4c4f40fe16628819b0bb1555eb3ae0615add91d53145";1456267088718;7;107;10;7;"is_probably";"unlikely";8855;"unlikely";"is_probably unlikely";"none"
92;"7f69d4bb6381e8a03b0a4c4f40fe16628819b0bb1555eb3ae0615add91d53145";1456267092990;8;105;10;5;"is_probably";"unlikely";4271;"unlikely";"is_probably unlikely";"none"
93;"7f69d4bb6381e8a03b0a4c4f40fe16628819b0bb1555eb3ae0615add91d53145";1456267100294;9;22;2;2;"is_probably";"possible";7303;"possible";"is_probably possible";"high"
94;"7f69d4bb6381e8a03b0a4c4f40fe16628819b0bb1555eb3ae0615add91d53145";1456267106887;10;102;10;2;"is_certainly";"probable";6592;"likely";"is_certainly likely";"none"
95;"7f69d4bb6381e8a03b0a4c4f40fe16628819b0bb1555eb3ae0615add91d53145";1456267110246;11;103;10;3;"is_probably";"probable";3358;"likely";"is_probably likely";"none"
96;"7f69d4bb6381e8a03b0a4c4f40fe16628819b0bb1555eb3ae0615add91d53145";1456267117038;12;41;4;1;"is";"probable";6791;"likely";"is likely";"high"
97;"bf38722aba3bedaf95d2628470af7d6c1197cf23941dcb3dbdb519f2005db6f8";1456261305496;1;108;10;8;"is_certainly";"probable";14655;"likely";"is_certainly likely";"none"
98;"bf38722aba3bedaf95d2628470af7d6c1197cf23941dcb3dbdb519f2005db6f8";1456261314167;2;105;10;5;"is";"possible";8670;"possible";"is possible";"none"
99;"bf38722aba3bedaf95d2628470af7d6c1197cf23941dcb3dbdb519f2005db6f8";1456261325295;3;82;8;2;"is_certainly";"unlikely";11127;"unlikely";"is_certainly unlikely";"low"
100;"bf38722aba3bedaf95d2628470af7d6c1197cf23941dcb3dbdb519f2005db6f8";1456261339745;4;102;10;2;"is";"unlikely";14448;"unlikely";"is unlikely";"none"
101;"bf38722aba3bedaf95d2628470af7d6c1197cf23941dcb3dbdb519f2005db6f8";1456261347095;5;84;8;4;"might_be";"possible";7345;"possible";"might_be possible";"low"
102;"bf38722aba3bedaf95d2628470af7d6c1197cf23941dcb3dbdb519f2005db6f8";1456261356360;6;80;8;0;"is_certainly";"unlikely";9262;"unlikely";"is_certainly unlikely";"low"
103;"bf38722aba3bedaf95d2628470af7d6c1197cf23941dcb3dbdb519f2005db6f8";1456261362984;7;107;10;7;"is_certainly";"probable";6622;"likely";"is_certainly likely";"none"
104;"bf38722aba3bedaf95d2628470af7d6c1197cf23941dcb3dbdb519f2005db6f8";1456261387560;8;43;4;3;"is_probably";"possible";24574;"possible";"is_probably possible";"high"
105;"bf38722aba3bedaf95d2628470af7d6c1197cf23941dcb3dbdb519f2005db6f8";1456261392495;9;88;8;8;"is_certainly";"probable";4934;"likely";"is_certainly likely";"low"
106;"bf38722aba3bedaf95d2628470af7d6c1197cf23941dcb3dbdb519f2005db6f8";1456261406616;10;22;2;2;"might_be";"possible";14118;"possible";"might_be possible";"high"
107;"bf38722aba3bedaf95d2628470af7d6c1197cf23941dcb3dbdb519f2005db6f8";1456261416504;11;41;4;1;"is";"possible";9884;"possible";"is possible";"high"
108;"bf38722aba3bedaf95d2628470af7d6c1197cf23941dcb3dbdb519f2005db6f8";1456261423248;12;42;4;2;"might_be";"probable";6743;"likely";"might_be likely";"high"
109;"02008f27a7509e3bb136e545e071172e05952edd21069d23477c2836c80fa21b";1456169710090;1;41;4;1;"is_probably";"unlikely";30415;"unlikely";"is_probably unlikely";"high"
110;"02008f27a7509e3bb136e545e071172e05952edd21069d23477c2836c80fa21b";1456169721593;2;107;10;7;"is_certainly";"likely";11499;"likely";"is_certainly likely";"none"
111;"02008f27a7509e3bb136e545e071172e05952edd21069d23477c2836c80fa21b";1456169738828;3;82;8;2;"is_certainly";"unlikely";17234;"unlikely";"is_certainly unlikely";"low"
112;"02008f27a7509e3bb136e545e071172e05952edd21069d23477c2836c80fa21b";1456169767318;4;105;10;5;"is";"possible";28489;"possible";"is possible";"none"
113;"02008f27a7509e3bb136e545e071172e05952edd21069d23477c2836c80fa21b";1456169784559;5;20;2;0;"might_be";"possible";17239;"possible";"might_be possible";"high"
114;"02008f27a7509e3bb136e545e071172e05952edd21069d23477c2836c80fa21b";1456169798813;6;84;8;4;"might_be";"possible";14253;"possible";"might_be possible";"low"
115;"02008f27a7509e3bb136e545e071172e05952edd21069d23477c2836c80fa21b";1456169810270;7;102;10;2;"is_certainly";"unlikely";11455;"unlikely";"is_certainly unlikely";"none"
116;"02008f27a7509e3bb136e545e071172e05952edd21069d23477c2836c80fa21b";1456169825083;8;43;4;3;"might_be";"probable";14812;"likely";"might_be likely";"high"
117;"02008f27a7509e3bb136e545e071172e05952edd21069d23477c2836c80fa21b";1456169839633;9;22;2;2;"is";"possible";14548;"possible";"is possible";"high"
118;"02008f27a7509e3bb136e545e071172e05952edd21069d23477c2836c80fa21b";1456169847773;10;42;4;2;"might_be";"possible";8139;"possible";"might_be possible";"high"
119;"02008f27a7509e3bb136e545e071172e05952edd21069d23477c2836c80fa21b";1456169853229;11;108;10;8;"is_certainly";"likely";5454;"likely";"is_certainly likely";"none"
120;"02008f27a7509e3bb136e545e071172e05952edd21069d23477c2836c80fa21b";1456169860384;12;80;8;0;"is_certainly";"unlikely";7153;"unlikely";"is_certainly unlikely";"low"
121;"556b41924bcb67392a70e44f5b6bd296bdc49d78e6d8dc11a4016e1d21a0aa7b";1456189851519;1;107;10;7;"is_probably";"likely";13658;"likely";"is_probably likely";"none"
122;"556b41924bcb67392a70e44f5b6bd296bdc49d78e6d8dc11a4016e1d21a0aa7b";1456189860175;2;41;4;1;"is_probably";"unlikely";8655;"unlikely";"is_probably unlikely";"high"
123;"556b41924bcb67392a70e44f5b6bd296bdc49d78e6d8dc11a4016e1d21a0aa7b";1456189870311;3;82;8;2;"is_probably";"unlikely";10135;"unlikely";"is_probably unlikely";"low"
124;"556b41924bcb67392a70e44f5b6bd296bdc49d78e6d8dc11a4016e1d21a0aa7b";1456189878007;4;102;10;2;"is_certainly";"unlikely";7695;"unlikely";"is_certainly unlikely";"none"
125;"556b41924bcb67392a70e44f5b6bd296bdc49d78e6d8dc11a4016e1d21a0aa7b";1456189884808;5;86;8;6;"is_probably";"likely";6799;"likely";"is_probably likely";"low"
126;"556b41924bcb67392a70e44f5b6bd296bdc49d78e6d8dc11a4016e1d21a0aa7b";1456189904183;6;108;10;8;"is_certainly";"likely";19375;"likely";"is_certainly likely";"none"
127;"556b41924bcb67392a70e44f5b6bd296bdc49d78e6d8dc11a4016e1d21a0aa7b";1456189910456;7;20;2;0;"might_be";"possible";6272;"possible";"might_be possible";"high"
128;"556b41924bcb67392a70e44f5b6bd296bdc49d78e6d8dc11a4016e1d21a0aa7b";1456189913759;8;22;2;2;"might_be";"possible";3303;"possible";"might_be possible";"high"
129;"556b41924bcb67392a70e44f5b6bd296bdc49d78e6d8dc11a4016e1d21a0aa7b";1456189920039;9;105;10;5;"might_be";"possible";6279;"possible";"might_be possible";"none"
130;"556b41924bcb67392a70e44f5b6bd296bdc49d78e6d8dc11a4016e1d21a0aa7b";1456189924658;10;42;4;2;"might_be";"possible";4618;"possible";"might_be possible";"high"
131;"556b41924bcb67392a70e44f5b6bd296bdc49d78e6d8dc11a4016e1d21a0aa7b";1456189932727;11;88;8;8;"is_certainly";"likely";8068;"likely";"is_certainly likely";"low"
132;"556b41924bcb67392a70e44f5b6bd296bdc49d78e6d8dc11a4016e1d21a0aa7b";1456189937575;12;84;8;4;"is_probably";"likely";4845;"likely";"is_probably likely";"low"
133;"535e0a5dab49aaee83386daa35b5cfff661011c77eb1857dcee24b25aa27b2d6";1456260414822;1;88;8;8;"might_be";"likely";11547;"likely";"might_be likely";"low"
134;"535e0a5dab49aaee83386daa35b5cfff661011c77eb1857dcee24b25aa27b2d6";1456260421598;2;107;10;7;"is_probably";"possible";6773;"possible";"is_probably possible";"none"
135;"535e0a5dab49aaee83386daa35b5cfff661011c77eb1857dcee24b25aa27b2d6";1456260427655;3;22;2;2;"is_probably";"possible";6055;"possible";"is_probably possible";"high"
136;"535e0a5dab49aaee83386daa35b5cfff661011c77eb1857dcee24b25aa27b2d6";1456260435396;4;80;8;0;"might_be";"unlikely";7738;"unlikely";"might_be unlikely";"low"
137;"535e0a5dab49aaee83386daa35b5cfff661011c77eb1857dcee24b25aa27b2d6";1456260441697;5;82;8;2;"is_probably";"unlikely";6300;"unlikely";"is_probably unlikely";"low"
138;"535e0a5dab49aaee83386daa35b5cfff661011c77eb1857dcee24b25aa27b2d6";1456260446626;6;43;4;3;"is_probably";"possible";4927;"possible";"is_probably possible";"high"
139;"535e0a5dab49aaee83386daa35b5cfff661011c77eb1857dcee24b25aa27b2d6";1456260452823;7;84;8;4;"is_probably";"possible";6195;"possible";"is_probably possible";"low"
140;"535e0a5dab49aaee83386daa35b5cfff661011c77eb1857dcee24b25aa27b2d6";1456260459985;8;20;2;0;"might_be";"unlikely";7160;"unlikely";"might_be unlikely";"high"
141;"535e0a5dab49aaee83386daa35b5cfff661011c77eb1857dcee24b25aa27b2d6";1456260465288;9;86;8;6;"is_probably";"possible";5301;"possible";"is_probably possible";"low"
142;"535e0a5dab49aaee83386daa35b5cfff661011c77eb1857dcee24b25aa27b2d6";1456260472455;10;102;10;2;"is_probably";"unlikely";7164;"unlikely";"is_probably unlikely";"none"
143;"535e0a5dab49aaee83386daa35b5cfff661011c77eb1857dcee24b25aa27b2d6";1456260487123;11;108;10;8;"might_be";"possible";14665;"possible";"might_be possible";"none"
144;"535e0a5dab49aaee83386daa35b5cfff661011c77eb1857dcee24b25aa27b2d6";1456260491139;12;105;10;5;"might_be";"possible";4014;"possible";"might_be possible";"none"
145;"0cdc92264fcb15a029f96b0fbb0ff42f9143e79d336eac15edf7abac1772bec4";1456263295908;1;88;8;8;"is_certainly";"likely";19830;"likely";"is_certainly likely";"low"
146;"0cdc92264fcb15a029f96b0fbb0ff42f9143e79d336eac15edf7abac1772bec4";1456263316789;2;80;8;0;"is_certainly";"unlikely";20877;"unlikely";"is_certainly unlikely";"low"
147;"0cdc92264fcb15a029f96b0fbb0ff42f9143e79d336eac15edf7abac1772bec4";1456263323739;3;22;2;2;"is";"unlikely";6943;"unlikely";"is unlikely";"high"
148;"0cdc92264fcb15a029f96b0fbb0ff42f9143e79d336eac15edf7abac1772bec4";1456263337898;4;41;4;1;"is";"possible";14156;"possible";"is possible";"high"
149;"0cdc92264fcb15a029f96b0fbb0ff42f9143e79d336eac15edf7abac1772bec4";1456263344178;5;82;8;2;"is";"unlikely";6277;"unlikely";"is unlikely";"low"
150;"0cdc92264fcb15a029f96b0fbb0ff42f9143e79d336eac15edf7abac1772bec4";1456263350622;6;43;4;3;"is";"possible";6440;"possible";"is possible";"high"
151;"0cdc92264fcb15a029f96b0fbb0ff42f9143e79d336eac15edf7abac1772bec4";1456263356843;7;84;8;4;"is";"possible";6217;"possible";"is possible";"low"
152;"0cdc92264fcb15a029f96b0fbb0ff42f9143e79d336eac15edf7abac1772bec4";1456263373020;8;105;10;5;"is";"possible";16174;"possible";"is possible";"none"
153;"0cdc92264fcb15a029f96b0fbb0ff42f9143e79d336eac15edf7abac1772bec4";1456263385731;9;107;10;7;"is";"likely";12708;"likely";"is likely";"none"
154;"0cdc92264fcb15a029f96b0fbb0ff42f9143e79d336eac15edf7abac1772bec4";1456263392690;10;20;2;0;"is";"possible";6955;"possible";"is possible";"high"
155;"0cdc92264fcb15a029f96b0fbb0ff42f9143e79d336eac15edf7abac1772bec4";1456263398708;11;42;4;2;"is";"possible";6014;"possible";"is possible";"high"
156;"0cdc92264fcb15a029f96b0fbb0ff42f9143e79d336eac15edf7abac1772bec4";1456263406418;12;86;8;6;"is";"probable";7707;"likely";"is likely";"low"
157;"ee012eb5d286849302b43f78576e193ff8b400d25895a48974efd060e7147ef6";1456261792661;1;43;4;3;"might_be";"probable";61656;"likely";"might_be likely";"high"
158;"ee012eb5d286849302b43f78576e193ff8b400d25895a48974efd060e7147ef6";1456261810569;2;88;8;8;"is";"probable";17903;"likely";"is likely";"low"
159;"ee012eb5d286849302b43f78576e193ff8b400d25895a48974efd060e7147ef6";1456261828637;3;108;10;8;"is";"probable";18064;"likely";"is likely";"none"
160;"ee012eb5d286849302b43f78576e193ff8b400d25895a48974efd060e7147ef6";1456261848028;4;41;4;1;"might_be";"unlikely";19376;"unlikely";"might_be unlikely";"high"
161;"ee012eb5d286849302b43f78576e193ff8b400d25895a48974efd060e7147ef6";1456261871809;5;42;4;2;"might_be";"likely";23776;"likely";"might_be likely";"high"
162;"ee012eb5d286849302b43f78576e193ff8b400d25895a48974efd060e7147ef6";1456261926021;6;105;10;5;"might_be";"likely";54205;"likely";"might_be likely";"none"
163;"ee012eb5d286849302b43f78576e193ff8b400d25895a48974efd060e7147ef6";1456261942588;7;20;2;0;"might_be";"unlikely";16561;"unlikely";"might_be unlikely";"high"
164;"ee012eb5d286849302b43f78576e193ff8b400d25895a48974efd060e7147ef6";1456261953611;8;107;10;7;"is";"probable";11018;"likely";"is likely";"none"
165;"ee012eb5d286849302b43f78576e193ff8b400d25895a48974efd060e7147ef6";1456261970130;9;80;8;0;"is";"unlikely";16514;"unlikely";"is unlikely";"low"
166;"ee012eb5d286849302b43f78576e193ff8b400d25895a48974efd060e7147ef6";1456261980786;10;103;10;3;"is";"unlikely";10651;"unlikely";"is unlikely";"none"
167;"ee012eb5d286849302b43f78576e193ff8b400d25895a48974efd060e7147ef6";1456261992928;11;86;8;6;"is";"probable";12138;"likely";"is likely";"low"
168;"ee012eb5d286849302b43f78576e193ff8b400d25895a48974efd060e7147ef6";1456262005408;12;22;2;2;"might_be";"probable";12476;"likely";"might_be likely";"high"
169;"3e5fa6181cba05ea12d9997f77830290a4f14713ab03fea239f6a62761d40117";1456268091727;1;108;10;8;"is_certainly";"probable";23856;"likely";"is_certainly likely";"none"
170;"3e5fa6181cba05ea12d9997f77830290a4f14713ab03fea239f6a62761d40117";1456268118974;2;42;4;2;"might_be";"possible";27235;"possible";"might_be possible";"high"
171;"3e5fa6181cba05ea12d9997f77830290a4f14713ab03fea239f6a62761d40117";1456268145563;3;105;10;5;"is";"possible";26579;"possible";"is possible";"none"
172;"3e5fa6181cba05ea12d9997f77830290a4f14713ab03fea239f6a62761d40117";1456268175682;4;41;4;1;"is";"unlikely";30106;"unlikely";"is unlikely";"high"
173;"3e5fa6181cba05ea12d9997f77830290a4f14713ab03fea239f6a62761d40117";1456268187775;5;103;10;3;"is";"unlikely";12082;"unlikely";"is unlikely";"none"
174;"3e5fa6181cba05ea12d9997f77830290a4f14713ab03fea239f6a62761d40117";1456268201515;6;88;8;8;"is_certainly";"likely";13728;"likely";"is_certainly likely";"low"
175;"3e5fa6181cba05ea12d9997f77830290a4f14713ab03fea239f6a62761d40117";1456268213008;7;22;2;2;"might_be";"possible";11481;"possible";"might_be possible";"high"
176;"3e5fa6181cba05ea12d9997f77830290a4f14713ab03fea239f6a62761d40117";1456268225687;8;86;8;6;"is_probably";"likely";12670;"likely";"is_probably likely";"low"
177;"3e5fa6181cba05ea12d9997f77830290a4f14713ab03fea239f6a62761d40117";1456268237648;9;102;10;2;"is";"unlikely";11951;"unlikely";"is unlikely";"none"
178;"3e5fa6181cba05ea12d9997f77830290a4f14713ab03fea239f6a62761d40117";1456268275773;10;43;4;3;"is";"possible";38117;"possible";"is possible";"high"
179;"3e5fa6181cba05ea12d9997f77830290a4f14713ab03fea239f6a62761d40117";1456268283579;11;84;8;4;"is";"possible";7791;"possible";"is possible";"low"
180;"3e5fa6181cba05ea12d9997f77830290a4f14713ab03fea239f6a62761d40117";1456268295950;12;107;10;7;"is_certainly";"probable";12362;"likely";"is_certainly likely";"none"
181;"33f516fa38422c8e500ba5a05abc01ee48f4a25d9945875938f7045d0e672067";1456171636987;1;105;10;5;"is";"probable";6061;"likely";"is likely";"none"
182;"33f516fa38422c8e500ba5a05abc01ee48f4a25d9945875938f7045d0e672067";1456171642548;2;102;10;2;"is";"possible";5548;"possible";"is possible";"none"
183;"33f516fa38422c8e500ba5a05abc01ee48f4a25d9945875938f7045d0e672067";1456171647868;3;43;4;3;"is_probably";"probable";5309;"likely";"is_probably likely";"high"
184;"33f516fa38422c8e500ba5a05abc01ee48f4a25d9945875938f7045d0e672067";1456171655373;4;108;10;8;"is_certainly";"unlikely";7494;"unlikely";"is_certainly unlikely";"none"
185;"33f516fa38422c8e500ba5a05abc01ee48f4a25d9945875938f7045d0e672067";1456171661237;5;82;8;2;"is_probably";"probable";5852;"likely";"is_probably likely";"low"
186;"33f516fa38422c8e500ba5a05abc01ee48f4a25d9945875938f7045d0e672067";1456171666704;6;22;2;2;"might_be";"possible";5456;"possible";"might_be possible";"high"
187;"33f516fa38422c8e500ba5a05abc01ee48f4a25d9945875938f7045d0e672067";1456171670310;7;103;10;3;"is_probably";"probable";3597;"likely";"is_probably likely";"none"
188;"33f516fa38422c8e500ba5a05abc01ee48f4a25d9945875938f7045d0e672067";1456171677327;8;86;8;6;"might_be";"unlikely";7005;"unlikely";"might_be unlikely";"low"
189;"33f516fa38422c8e500ba5a05abc01ee48f4a25d9945875938f7045d0e672067";1456171684927;9;88;8;8;"is_certainly";"unlikely";7590;"unlikely";"is_certainly unlikely";"low"
190;"33f516fa38422c8e500ba5a05abc01ee48f4a25d9945875938f7045d0e672067";1456171688817;10;20;2;0;"is_probably";"probable";3879;"likely";"is_probably likely";"high"
191;"33f516fa38422c8e500ba5a05abc01ee48f4a25d9945875938f7045d0e672067";1456171692840;11;41;4;1;"is_probably";"possible";4009;"possible";"is_probably possible";"high"
192;"33f516fa38422c8e500ba5a05abc01ee48f4a25d9945875938f7045d0e672067";1456171697662;12;42;4;2;"is";"possible";4806;"possible";"is possible";"high"
193;"4e041b14957e60b330803cd56412c81fe516eacdfd733530a5be80cb5d56b555";1456259639073;1;88;8;8;"is_probably";"likely";23267;"likely";"is_probably likely";"low"
194;"4e041b14957e60b330803cd56412c81fe516eacdfd733530a5be80cb5d56b555";1456259658544;2;82;8;2;"is";"unlikely";19469;"unlikely";"is unlikely";"low"
195;"4e041b14957e60b330803cd56412c81fe516eacdfd733530a5be80cb5d56b555";1456259666933;3;20;2;0;"might_be";"possible";8386;"possible";"might_be possible";"high"
196;"4e041b14957e60b330803cd56412c81fe516eacdfd733530a5be80cb5d56b555";1456259680153;4;86;8;6;"is";"likely";13217;"likely";"is likely";"low"
197;"4e041b14957e60b330803cd56412c81fe516eacdfd733530a5be80cb5d56b555";1456259689632;5;80;8;0;"is";"unlikely";9477;"unlikely";"is unlikely";"low"
198;"4e041b14957e60b330803cd56412c81fe516eacdfd733530a5be80cb5d56b555";1456259706413;6;43;4;3;"might_be";"possible";16778;"possible";"might_be possible";"high"
199;"4e041b14957e60b330803cd56412c81fe516eacdfd733530a5be80cb5d56b555";1456259714885;7;102;10;2;"is";"unlikely";8469;"unlikely";"is unlikely";"none"
200;"4e041b14957e60b330803cd56412c81fe516eacdfd733530a5be80cb5d56b555";1456259720647;8;42;4;2;"might_be";"possible";5760;"possible";"might_be possible";"high"
201;"4e041b14957e60b330803cd56412c81fe516eacdfd733530a5be80cb5d56b555";1456259732144;9;107;10;7;"is";"probable";11495;"likely";"is likely";"none"
202;"4e041b14957e60b330803cd56412c81fe516eacdfd733530a5be80cb5d56b555";1456259747189;10;103;10;3;"is_probably";"unlikely";15043;"unlikely";"is_probably unlikely";"none"
203;"4e041b14957e60b330803cd56412c81fe516eacdfd733530a5be80cb5d56b555";1456259770662;11;41;4;1;"is_probably";"unlikely";23470;"unlikely";"is_probably unlikely";"high"
204;"4e041b14957e60b330803cd56412c81fe516eacdfd733530a5be80cb5d56b555";1456259776893;12;108;10;8;"is";"likely";6228;"likely";"is likely";"none"
205;"a547fcfa15a11c31cf59e2f0f5936bd0920b915b0f39913d0ed1cc812f0caf23";1456172560236;1;108;10;8;"is_certainly";"probable";17393;"likely";"is_certainly likely";"none"
206;"a547fcfa15a11c31cf59e2f0f5936bd0920b915b0f39913d0ed1cc812f0caf23";1456172572524;2;22;2;2;"is";"possible";12280;"possible";"is possible";"high"
207;"a547fcfa15a11c31cf59e2f0f5936bd0920b915b0f39913d0ed1cc812f0caf23";1456172579395;3;107;10;7;"is_probably";"likely";6865;"likely";"is_probably likely";"none"
208;"a547fcfa15a11c31cf59e2f0f5936bd0920b915b0f39913d0ed1cc812f0caf23";1456172593398;4;43;4;3;"is_certainly";"possible";13994;"possible";"is_certainly possible";"high"
209;"a547fcfa15a11c31cf59e2f0f5936bd0920b915b0f39913d0ed1cc812f0caf23";1456172597947;5;88;8;8;"is_certainly";"probable";4543;"likely";"is_certainly likely";"low"
210;"a547fcfa15a11c31cf59e2f0f5936bd0920b915b0f39913d0ed1cc812f0caf23";1456172605608;6;103;10;3;"is";"unlikely";7650;"unlikely";"is unlikely";"none"
211;"a547fcfa15a11c31cf59e2f0f5936bd0920b915b0f39913d0ed1cc812f0caf23";1456172615201;7;42;4;2;"might_be";"possible";9585;"possible";"might_be possible";"high"
212;"a547fcfa15a11c31cf59e2f0f5936bd0920b915b0f39913d0ed1cc812f0caf23";1456172626121;8;82;8;2;"is_probably";"unlikely";10912;"unlikely";"is_probably unlikely";"low"
213;"a547fcfa15a11c31cf59e2f0f5936bd0920b915b0f39913d0ed1cc812f0caf23";1456172631183;9;41;4;1;"is_probably";"unlikely";5055;"unlikely";"is_probably unlikely";"high"
214;"a547fcfa15a11c31cf59e2f0f5936bd0920b915b0f39913d0ed1cc812f0caf23";1456172639342;10;105;10;5;"is_certainly";"possible";8144;"possible";"is_certainly possible";"none"
215;"a547fcfa15a11c31cf59e2f0f5936bd0920b915b0f39913d0ed1cc812f0caf23";1456172645496;11;86;8;6;"is_probably";"likely";6144;"likely";"is_probably likely";"low"
216;"a547fcfa15a11c31cf59e2f0f5936bd0920b915b0f39913d0ed1cc812f0caf23";1456172653504;12;102;10;2;"is";"unlikely";8000;"unlikely";"is unlikely";"none"
217;"4321fdfb6fc2f1abc34e1be6a27e14871a8f06e348b6dcacf0e7d39d51c45c80";1456210187768;1;20;2;0;"might_be";"possible";30584;"possible";"might_be possible";"high"
218;"4321fdfb6fc2f1abc34e1be6a27e14871a8f06e348b6dcacf0e7d39d51c45c80";1456210201609;2;84;8;4;"might_be";"probable";13838;"likely";"might_be likely";"low"
219;"4321fdfb6fc2f1abc34e1be6a27e14871a8f06e348b6dcacf0e7d39d51c45c80";1456210215279;3;43;4;3;"is";"likely";13667;"likely";"is likely";"high"
220;"4321fdfb6fc2f1abc34e1be6a27e14871a8f06e348b6dcacf0e7d39d51c45c80";1456210224243;4;107;10;7;"is";"likely";8963;"likely";"is likely";"none"
221;"4321fdfb6fc2f1abc34e1be6a27e14871a8f06e348b6dcacf0e7d39d51c45c80";1456210236488;5;42;4;2;"might_be";"probable";12242;"likely";"might_be likely";"high"
222;"4321fdfb6fc2f1abc34e1be6a27e14871a8f06e348b6dcacf0e7d39d51c45c80";1456210248313;6;41;4;1;"is_probably";"unlikely";11822;"unlikely";"is_probably unlikely";"high"
223;"4321fdfb6fc2f1abc34e1be6a27e14871a8f06e348b6dcacf0e7d39d51c45c80";1456210265817;7;105;10;5;"might_be";"probable";17503;"likely";"might_be likely";"none"
224;"4321fdfb6fc2f1abc34e1be6a27e14871a8f06e348b6dcacf0e7d39d51c45c80";1456210275952;8;108;10;8;"is_probably";"likely";10132;"likely";"is_probably likely";"none"
225;"4321fdfb6fc2f1abc34e1be6a27e14871a8f06e348b6dcacf0e7d39d51c45c80";1456210281856;9;22;2;2;"might_be";"possible";5903;"possible";"might_be possible";"high"
226;"4321fdfb6fc2f1abc34e1be6a27e14871a8f06e348b6dcacf0e7d39d51c45c80";1456210288208;10;82;8;2;"is_probably";"unlikely";6352;"unlikely";"is_probably unlikely";"low"
227;"4321fdfb6fc2f1abc34e1be6a27e14871a8f06e348b6dcacf0e7d39d51c45c80";1456210304833;11;88;8;8;"is_probably";"likely";16624;"likely";"is_probably likely";"low"
228;"4321fdfb6fc2f1abc34e1be6a27e14871a8f06e348b6dcacf0e7d39d51c45c80";1456210312529;12;103;10;3;"is_probably";"unlikely";7693;"unlikely";"is_probably unlikely";"none"
229;"5880d16dc7698a5b181186868d48c8227d0ab484c323dccdd2b71783fc652136";1455721381869;1;80;8;0;"is";"probable";27344;"likely";"is likely";"low"
230;"5880d16dc7698a5b181186868d48c8227d0ab484c323dccdd2b71783fc652136";1455721403891;2;82;8;2;"is_probably";"unlikely";22020;"unlikely";"is_probably unlikely";"low"
231;"5880d16dc7698a5b181186868d48c8227d0ab484c323dccdd2b71783fc652136";1455721418947;3;88;8;8;"might_be";"possible";15054;"possible";"might_be possible";"low"
232;"5880d16dc7698a5b181186868d48c8227d0ab484c323dccdd2b71783fc652136";1455721428644;4;84;8;4;"might_be";"possible";9694;"possible";"might_be possible";"low"
233;"5880d16dc7698a5b181186868d48c8227d0ab484c323dccdd2b71783fc652136";1455721451892;5;86;8;6;"is";"probable";23245;"likely";"is likely";"low"
234;"5880d16dc7698a5b181186868d48c8227d0ab484c323dccdd2b71783fc652136";1455721675965;6;20;2;0;"might_be";"possible";224066;"possible";"might_be possible";"high"
235;"5880d16dc7698a5b181186868d48c8227d0ab484c323dccdd2b71783fc652136";1455721691812;7;42;4;2;"might_be";"possible";15841;"possible";"might_be possible";"high"
236;"5880d16dc7698a5b181186868d48c8227d0ab484c323dccdd2b71783fc652136";1455721707235;8;41;4;1;"is_probably";"possible";15419;"possible";"is_probably possible";"high"
237;"5880d16dc7698a5b181186868d48c8227d0ab484c323dccdd2b71783fc652136";1455721732764;9;107;10;7;"is_probably";"likely";25527;"likely";"is_probably likely";"none"
238;"5880d16dc7698a5b181186868d48c8227d0ab484c323dccdd2b71783fc652136";1455721747108;10;108;10;8;"is_probably";"likely";14342;"likely";"is_probably likely";"none"
239;"5880d16dc7698a5b181186868d48c8227d0ab484c323dccdd2b71783fc652136";1455721762589;11;102;10;2;"is_probably";"unlikely";15479;"unlikely";"is_probably unlikely";"none"
240;"5880d16dc7698a5b181186868d48c8227d0ab484c323dccdd2b71783fc652136";1455721770268;12;105;10;5;"is";"possible";7677;"possible";"is possible";"none"
241;"6e3af3f086e5da5f4e6e0caa201737925313046ec4e3140031edf011be6e7cc1";1456259627273;1;20;2;0;"is";"unlikely";16070;"unlikely";"is unlikely";"high"
242;"6e3af3f086e5da5f4e6e0caa201737925313046ec4e3140031edf011be6e7cc1";1456259638281;2;43;4;3;"is";"likely";11008;"likely";"is likely";"high"
243;"6e3af3f086e5da5f4e6e0caa201737925313046ec4e3140031edf011be6e7cc1";1456259650417;3;105;10;5;"might_be";"possible";12136;"possible";"might_be possible";"none"
244;"6e3af3f086e5da5f4e6e0caa201737925313046ec4e3140031edf011be6e7cc1";1456259659649;4;86;8;6;"is";"likely";9232;"likely";"is likely";"low"
245;"6e3af3f086e5da5f4e6e0caa201737925313046ec4e3140031edf011be6e7cc1";1456259672930;5;22;2;2;"is";"possible";13280;"possible";"is possible";"high"
246;"6e3af3f086e5da5f4e6e0caa201737925313046ec4e3140031edf011be6e7cc1";1456259680576;6;88;8;8;"is_certainly";"likely";7644;"likely";"is_certainly likely";"low"
247;"6e3af3f086e5da5f4e6e0caa201737925313046ec4e3140031edf011be6e7cc1";1456259690048;7;102;10;2;"is";"unlikely";9472;"unlikely";"is unlikely";"none"
248;"6e3af3f086e5da5f4e6e0caa201737925313046ec4e3140031edf011be6e7cc1";1456259699960;8;41;4;1;"is";"unlikely";9912;"unlikely";"is unlikely";"high"
249;"6e3af3f086e5da5f4e6e0caa201737925313046ec4e3140031edf011be6e7cc1";1456259707416;9;108;10;8;"is";"unlikely";7456;"unlikely";"is unlikely";"none"
250;"6e3af3f086e5da5f4e6e0caa201737925313046ec4e3140031edf011be6e7cc1";1456259716632;10;82;8;2;"is";"unlikely";9216;"unlikely";"is unlikely";"low"
251;"6e3af3f086e5da5f4e6e0caa201737925313046ec4e3140031edf011be6e7cc1";1456259731736;11;107;10;7;"is";"likely";15104;"likely";"is likely";"none"
252;"6e3af3f086e5da5f4e6e0caa201737925313046ec4e3140031edf011be6e7cc1";1456259739744;12;80;8;0;"is";"unlikely";8008;"unlikely";"is unlikely";"low"
253;"16bb7da428c298ceea9cd8102c99e47822e5f20bd0ad2fc79351f0d4a5f93027";1456259914901;1;84;8;4;"is_probably";"possible";41893;"possible";"is_probably possible";"low"
254;"16bb7da428c298ceea9cd8102c99e47822e5f20bd0ad2fc79351f0d4a5f93027";1456259949007;2;43;4;3;"is";"probable";34104;"likely";"is likely";"high"
255;"16bb7da428c298ceea9cd8102c99e47822e5f20bd0ad2fc79351f0d4a5f93027";1456259964475;3;105;10;5;"is_certainly";"possible";15466;"possible";"is_certainly possible";"none"
256;"16bb7da428c298ceea9cd8102c99e47822e5f20bd0ad2fc79351f0d4a5f93027";1456259976023;4;41;4;1;"is";"unlikely";11545;"unlikely";"is unlikely";"high"
257;"16bb7da428c298ceea9cd8102c99e47822e5f20bd0ad2fc79351f0d4a5f93027";1456259986245;5;103;10;3;"is";"unlikely";10220;"unlikely";"is unlikely";"none"
258;"16bb7da428c298ceea9cd8102c99e47822e5f20bd0ad2fc79351f0d4a5f93027";1456259999546;6;22;2;2;"is";"possible";13298;"possible";"is possible";"high"
259;"16bb7da428c298ceea9cd8102c99e47822e5f20bd0ad2fc79351f0d4a5f93027";1456260006989;7;20;2;0;"is";"unlikely";7441;"unlikely";"is unlikely";"high"
260;"16bb7da428c298ceea9cd8102c99e47822e5f20bd0ad2fc79351f0d4a5f93027";1456260015850;8;102;10;2;"is";"possible";8857;"possible";"is possible";"none"
261;"16bb7da428c298ceea9cd8102c99e47822e5f20bd0ad2fc79351f0d4a5f93027";1456260030250;9;80;8;0;"is";"unlikely";14399;"unlikely";"is unlikely";"low"
262;"16bb7da428c298ceea9cd8102c99e47822e5f20bd0ad2fc79351f0d4a5f93027";1456260037771;10;108;10;8;"is";"probable";7519;"likely";"is likely";"none"
263;"16bb7da428c298ceea9cd8102c99e47822e5f20bd0ad2fc79351f0d4a5f93027";1456260044126;11;107;10;7;"is";"probable";6354;"likely";"is likely";"none"
264;"16bb7da428c298ceea9cd8102c99e47822e5f20bd0ad2fc79351f0d4a5f93027";1456260051666;12;86;8;6;"is";"possible";7538;"possible";"is possible";"low"
265;"6cc84a50e0551efb045226e970f3a13a9d21d8b8bee9863083f9e80bfd212325";1456330225314;1;103;10;3;"might_be";"unlikely";23880;"unlikely";"might_be unlikely";"none"
266;"6cc84a50e0551efb045226e970f3a13a9d21d8b8bee9863083f9e80bfd212325";1456330238474;2;80;8;0;"is_certainly";"unlikely";13157;"unlikely";"is_certainly unlikely";"low"
267;"6cc84a50e0551efb045226e970f3a13a9d21d8b8bee9863083f9e80bfd212325";1456330274018;3;102;10;2;"is";"unlikely";35541;"unlikely";"is unlikely";"none"
268;"6cc84a50e0551efb045226e970f3a13a9d21d8b8bee9863083f9e80bfd212325";1456330285041;4;41;4;1;"is";"unlikely";11019;"unlikely";"is unlikely";"high"
269;"6cc84a50e0551efb045226e970f3a13a9d21d8b8bee9863083f9e80bfd212325";1456330299699;5;108;10;8;"is_probably";"likely";14656;"likely";"is_probably likely";"none"
270;"6cc84a50e0551efb045226e970f3a13a9d21d8b8bee9863083f9e80bfd212325";1456330309819;6;82;8;2;"is_probably";"unlikely";10117;"unlikely";"is_probably unlikely";"low"
271;"6cc84a50e0551efb045226e970f3a13a9d21d8b8bee9863083f9e80bfd212325";1456330319227;7;107;10;7;"is_probably";"likely";9400;"likely";"is_probably likely";"none"
272;"6cc84a50e0551efb045226e970f3a13a9d21d8b8bee9863083f9e80bfd212325";1456330330946;8;20;2;0;"is";"unlikely";11717;"unlikely";"is unlikely";"high"
273;"6cc84a50e0551efb045226e970f3a13a9d21d8b8bee9863083f9e80bfd212325";1456330349800;9;43;4;3;"is_probably";"probable";18852;"likely";"is_probably likely";"high"
274;"6cc84a50e0551efb045226e970f3a13a9d21d8b8bee9863083f9e80bfd212325";1456330373099;10;84;8;4;"might_be";"possible";23296;"possible";"might_be possible";"low"
275;"6cc84a50e0551efb045226e970f3a13a9d21d8b8bee9863083f9e80bfd212325";1456330391178;11;105;10;5;"is_probably";"probable";18078;"likely";"is_probably likely";"none"
276;"6cc84a50e0551efb045226e970f3a13a9d21d8b8bee9863083f9e80bfd212325";1456330418042;12;42;4;2;"is";"probable";26858;"likely";"is likely";"high"
277;"bb2a683f1101913a29f457b6d23146038494bce6ba6e97014c54875797b78ea8";1456265533334;1;43;4;3;"might_be";"possible";12488;"possible";"might_be possible";"high"
278;"bb2a683f1101913a29f457b6d23146038494bce6ba6e97014c54875797b78ea8";1456265542031;2;88;8;8;"is";"likely";8696;"likely";"is likely";"low"
279;"bb2a683f1101913a29f457b6d23146038494bce6ba6e97014c54875797b78ea8";1456265547716;3;86;8;6;"might_be";"likely";5682;"likely";"might_be likely";"low"
280;"bb2a683f1101913a29f457b6d23146038494bce6ba6e97014c54875797b78ea8";1456265555450;4;42;4;2;"might_be";"possible";7733;"possible";"might_be possible";"high"
281;"bb2a683f1101913a29f457b6d23146038494bce6ba6e97014c54875797b78ea8";1456265560410;5;82;8;2;"is";"unlikely";4959;"unlikely";"is unlikely";"low"
282;"bb2a683f1101913a29f457b6d23146038494bce6ba6e97014c54875797b78ea8";1456265565224;6;20;2;0;"is";"unlikely";4813;"unlikely";"is unlikely";"high"
283;"bb2a683f1101913a29f457b6d23146038494bce6ba6e97014c54875797b78ea8";1456265576192;7;84;8;4;"is";"possible";10967;"possible";"is possible";"low"
284;"bb2a683f1101913a29f457b6d23146038494bce6ba6e97014c54875797b78ea8";1456265581590;8;80;8;0;"is";"unlikely";5395;"unlikely";"is unlikely";"low"
285;"bb2a683f1101913a29f457b6d23146038494bce6ba6e97014c54875797b78ea8";1456265587894;9;105;10;5;"is";"possible";6303;"possible";"is possible";"none"
286;"bb2a683f1101913a29f457b6d23146038494bce6ba6e97014c54875797b78ea8";1456265594440;10;108;10;8;"is";"likely";6545;"likely";"is likely";"none"
287;"bb2a683f1101913a29f457b6d23146038494bce6ba6e97014c54875797b78ea8";1456265602620;11;41;4;1;"is_probably";"unlikely";8179;"unlikely";"is_probably unlikely";"high"
288;"bb2a683f1101913a29f457b6d23146038494bce6ba6e97014c54875797b78ea8";1456265621350;12;102;10;2;"is";"unlikely";18729;"unlikely";"is unlikely";"none"
289;"13e88c2a5f77a54083a2d1bb542cee6953278a262c505a9d2ed2c9c0c110d301";1456319930458;1;82;8;2;"might_be";"possible";16415;"possible";"might_be possible";"low"
290;"13e88c2a5f77a54083a2d1bb542cee6953278a262c505a9d2ed2c9c0c110d301";1456319941300;2;103;10;3;"might_be";"possible";10820;"possible";"might_be possible";"none"
291;"13e88c2a5f77a54083a2d1bb542cee6953278a262c505a9d2ed2c9c0c110d301";1456319954295;3;22;2;2;"is";"unlikely";12980;"unlikely";"is unlikely";"high"
292;"13e88c2a5f77a54083a2d1bb542cee6953278a262c505a9d2ed2c9c0c110d301";1456319971795;4;88;8;8;"is_certainly";"likely";17486;"likely";"is_certainly likely";"low"
293;"13e88c2a5f77a54083a2d1bb542cee6953278a262c505a9d2ed2c9c0c110d301";1456319994861;5;80;8;0;"is_certainly";"unlikely";23056;"unlikely";"is_certainly unlikely";"low"
294;"13e88c2a5f77a54083a2d1bb542cee6953278a262c505a9d2ed2c9c0c110d301";1456320005254;6;84;8;4;"might_be";"possible";10381;"possible";"might_be possible";"low"
295;"13e88c2a5f77a54083a2d1bb542cee6953278a262c505a9d2ed2c9c0c110d301";1456320013704;7;43;4;3;"is_probably";"probable";8430;"likely";"is_probably likely";"high"
296;"13e88c2a5f77a54083a2d1bb542cee6953278a262c505a9d2ed2c9c0c110d301";1456320020826;8;105;10;5;"is";"likely";7103;"likely";"is likely";"none"
297;"13e88c2a5f77a54083a2d1bb542cee6953278a262c505a9d2ed2c9c0c110d301";1456320028985;9;102;10;2;"might_be";"likely";8141;"likely";"might_be likely";"none"
298;"13e88c2a5f77a54083a2d1bb542cee6953278a262c505a9d2ed2c9c0c110d301";1456320036503;10;108;10;8;"is";"likely";7500;"likely";"is likely";"none"
299;"13e88c2a5f77a54083a2d1bb542cee6953278a262c505a9d2ed2c9c0c110d301";1456320042730;11;86;8;6;"is";"likely";6213;"likely";"is likely";"low"
300;"13e88c2a5f77a54083a2d1bb542cee6953278a262c505a9d2ed2c9c0c110d301";1456320048585;12;20;2;0;"is_certainly";"unlikely";5841;"unlikely";"is_certainly unlikely";"high"
301;"cb502e3c1b8d80221bef96d5a4eaf1e54455974e917639b6934b245a15ffc165";1456273661813;1;88;8;8;"is_certainly";"likely";13719;"likely";"is_certainly likely";"low"
302;"cb502e3c1b8d80221bef96d5a4eaf1e54455974e917639b6934b245a15ffc165";1456273670145;2;22;2;2;"might_be";"possible";8330;"possible";"might_be possible";"high"
303;"cb502e3c1b8d80221bef96d5a4eaf1e54455974e917639b6934b245a15ffc165";1456273686129;3;20;2;0;"might_be";"unlikely";15981;"unlikely";"might_be unlikely";"high"
304;"cb502e3c1b8d80221bef96d5a4eaf1e54455974e917639b6934b245a15ffc165";1456273692024;4;43;4;3;"is_probably";"probable";5890;"likely";"is_probably likely";"high"
305;"cb502e3c1b8d80221bef96d5a4eaf1e54455974e917639b6934b245a15ffc165";1456273702203;5;107;10;7;"is_probably";"probable";10177;"likely";"is_probably likely";"none"
306;"cb502e3c1b8d80221bef96d5a4eaf1e54455974e917639b6934b245a15ffc165";1456273712466;6;105;10;5;"is";"possible";10261;"possible";"is possible";"none"
307;"cb502e3c1b8d80221bef96d5a4eaf1e54455974e917639b6934b245a15ffc165";1456273719401;7;42;4;2;"is";"possible";6933;"possible";"is possible";"high"
308;"cb502e3c1b8d80221bef96d5a4eaf1e54455974e917639b6934b245a15ffc165";1456273726149;8;82;8;2;"is";"unlikely";6746;"unlikely";"is unlikely";"low"
309;"cb502e3c1b8d80221bef96d5a4eaf1e54455974e917639b6934b245a15ffc165";1456273731758;9;86;8;6;"is";"probable";5607;"likely";"is likely";"low"
310;"cb502e3c1b8d80221bef96d5a4eaf1e54455974e917639b6934b245a15ffc165";1456273738916;10;108;10;8;"is";"likely";7156;"likely";"is likely";"none"
311;"cb502e3c1b8d80221bef96d5a4eaf1e54455974e917639b6934b245a15ffc165";1456273744493;11;80;8;0;"is";"unlikely";5574;"unlikely";"is unlikely";"low"
312;"cb502e3c1b8d80221bef96d5a4eaf1e54455974e917639b6934b245a15ffc165";1456273749246;12;102;10;2;"is";"unlikely";4751;"unlikely";"is unlikely";"none"
313;"b539c9ef06b3512f1bd6d21c5ef0ab373e76977a65fd9719a3838c756d02f510";1456259632034;1;82;8;2;"is";"unlikely";25806;"unlikely";"is unlikely";"low"
314;"b539c9ef06b3512f1bd6d21c5ef0ab373e76977a65fd9719a3838c756d02f510";1456259645629;2;88;8;8;"is_certainly";"likely";13592;"likely";"is_certainly likely";"low"
315;"b539c9ef06b3512f1bd6d21c5ef0ab373e76977a65fd9719a3838c756d02f510";1456259660389;3;102;10;2;"is";"unlikely";14759;"unlikely";"is unlikely";"none"
316;"b539c9ef06b3512f1bd6d21c5ef0ab373e76977a65fd9719a3838c756d02f510";1456259668374;4;80;8;0;"is_certainly";"unlikely";7984;"unlikely";"is_certainly unlikely";"low"
317;"b539c9ef06b3512f1bd6d21c5ef0ab373e76977a65fd9719a3838c756d02f510";1456259682100;5;41;4;1;"is";"unlikely";13726;"unlikely";"is unlikely";"high"
318;"b539c9ef06b3512f1bd6d21c5ef0ab373e76977a65fd9719a3838c756d02f510";1456259687695;6;20;2;0;"is";"probable";5594;"likely";"is likely";"high"
319;"b539c9ef06b3512f1bd6d21c5ef0ab373e76977a65fd9719a3838c756d02f510";1456259705727;7;105;10;5;"is_certainly";"possible";18031;"possible";"is_certainly possible";"none"
320;"b539c9ef06b3512f1bd6d21c5ef0ab373e76977a65fd9719a3838c756d02f510";1456259712385;8;86;8;6;"is";"likely";6657;"likely";"is likely";"low"
321;"b539c9ef06b3512f1bd6d21c5ef0ab373e76977a65fd9719a3838c756d02f510";1456259716831;9;108;10;8;"is_certainly";"likely";4445;"likely";"is_certainly likely";"none"
322;"b539c9ef06b3512f1bd6d21c5ef0ab373e76977a65fd9719a3838c756d02f510";1456259720996;10;84;8;4;"is";"probable";4164;"likely";"is likely";"low"
323;"b539c9ef06b3512f1bd6d21c5ef0ab373e76977a65fd9719a3838c756d02f510";1456259724196;11;42;4;2;"is";"probable";3200;"likely";"is likely";"high"
324;"b539c9ef06b3512f1bd6d21c5ef0ab373e76977a65fd9719a3838c756d02f510";1456259744504;12;43;4;3;"is_certainly";"likely";20307;"likely";"is_certainly likely";"high"
325;"977820ca8c6011cefa354f1a74e383c567aad8b72cb5108ba9dfc36b60189628";1456342902229;1;82;8;2;"might_be";"unlikely";22365;"unlikely";"might_be unlikely";"low"
326;"977820ca8c6011cefa354f1a74e383c567aad8b72cb5108ba9dfc36b60189628";1456342922605;2;88;8;8;"is_probably";"probable";20360;"likely";"is_probably likely";"low"
327;"977820ca8c6011cefa354f1a74e383c567aad8b72cb5108ba9dfc36b60189628";1456342938934;3;41;4;1;"is";"unlikely";16323;"unlikely";"is unlikely";"high"
328;"977820ca8c6011cefa354f1a74e383c567aad8b72cb5108ba9dfc36b60189628";1456342944468;4;42;4;2;"might_be";"possible";5520;"possible";"might_be possible";"high"
329;"977820ca8c6011cefa354f1a74e383c567aad8b72cb5108ba9dfc36b60189628";1456342948942;5;102;10;2;"is_probably";"unlikely";4469;"unlikely";"is_probably unlikely";"none"
330;"977820ca8c6011cefa354f1a74e383c567aad8b72cb5108ba9dfc36b60189628";1456342956741;6;103;10;3;"might_be";"unlikely";7792;"unlikely";"might_be unlikely";"none"
331;"977820ca8c6011cefa354f1a74e383c567aad8b72cb5108ba9dfc36b60189628";1456342962156;7;80;8;0;"is_probably";"unlikely";5408;"unlikely";"is_probably unlikely";"low"
332;"977820ca8c6011cefa354f1a74e383c567aad8b72cb5108ba9dfc36b60189628";1456342967724;8;43;4;3;"might_be";"possible";5563;"possible";"might_be possible";"high"
333;"977820ca8c6011cefa354f1a74e383c567aad8b72cb5108ba9dfc36b60189628";1456342978004;9;107;10;7;"is_probably";"likely";10275;"likely";"is_probably likely";"none"
334;"977820ca8c6011cefa354f1a74e383c567aad8b72cb5108ba9dfc36b60189628";1456342986355;10;86;8;6;"is";"likely";8346;"likely";"is likely";"low"
335;"977820ca8c6011cefa354f1a74e383c567aad8b72cb5108ba9dfc36b60189628";1456342991436;11;22;2;2;"might_be";"possible";5075;"possible";"might_be possible";"high"
336;"977820ca8c6011cefa354f1a74e383c567aad8b72cb5108ba9dfc36b60189628";1456342998564;12;105;10;5;"might_be";"possible";7123;"possible";"might_be possible";"none"
337;"676ecd135e5ca55089acd3e7f22dfc37e0e7ad4210b7e07b0334b5ac13818685";1456259598134;1;86;8;6;"is_certainly";"probable";15256;"likely";"is_certainly likely";"low"
338;"676ecd135e5ca55089acd3e7f22dfc37e0e7ad4210b7e07b0334b5ac13818685";1456259608395;2;20;2;0;"might_be";"possible";10261;"possible";"might_be possible";"high"
339;"676ecd135e5ca55089acd3e7f22dfc37e0e7ad4210b7e07b0334b5ac13818685";1456259621135;3;103;10;3;"is_certainly";"unlikely";12740;"unlikely";"is_certainly unlikely";"none"
340;"676ecd135e5ca55089acd3e7f22dfc37e0e7ad4210b7e07b0334b5ac13818685";1456259631737;4;105;10;5;"is_probably";"probable";10586;"likely";"is_probably likely";"none"
341;"676ecd135e5ca55089acd3e7f22dfc37e0e7ad4210b7e07b0334b5ac13818685";1456259639671;5;102;10;2;"is_probably";"unlikely";7934;"unlikely";"is_probably unlikely";"none"
342;"676ecd135e5ca55089acd3e7f22dfc37e0e7ad4210b7e07b0334b5ac13818685";1456259649039;6;108;10;8;"is_certainly";"probable";9352;"likely";"is_certainly likely";"none"
343;"676ecd135e5ca55089acd3e7f22dfc37e0e7ad4210b7e07b0334b5ac13818685";1456259657254;7;42;4;2;"might_be";"possible";8215;"possible";"might_be possible";"high"
344;"676ecd135e5ca55089acd3e7f22dfc37e0e7ad4210b7e07b0334b5ac13818685";1456259665141;8;84;8;4;"is_probably";"possible";7872;"possible";"is_probably possible";"low"
345;"676ecd135e5ca55089acd3e7f22dfc37e0e7ad4210b7e07b0334b5ac13818685";1456259671424;9;41;4;1;"is";"unlikely";6283;"unlikely";"is unlikely";"high"
346;"676ecd135e5ca55089acd3e7f22dfc37e0e7ad4210b7e07b0334b5ac13818685";1456259677868;10;107;10;7;"is_probably";"probable";6444;"likely";"is_probably likely";"none"
347;"676ecd135e5ca55089acd3e7f22dfc37e0e7ad4210b7e07b0334b5ac13818685";1456259685294;11;80;8;0;"is";"likely";7426;"likely";"is likely";"low"
348;"676ecd135e5ca55089acd3e7f22dfc37e0e7ad4210b7e07b0334b5ac13818685";1456259692373;12;82;8;2;"is_probably";"unlikely";7075;"unlikely";"is_probably unlikely";"low"
349;"655ace3085c1b2c22a1e3007046a64f831ce6623d22c53544d53c7d94b901a5a";1456169572100;1;82;8;2;"is";"unlikely";21273;"unlikely";"is unlikely";"low"
350;"655ace3085c1b2c22a1e3007046a64f831ce6623d22c53544d53c7d94b901a5a";1456169581648;2;102;10;2;"is";"unlikely";9538;"unlikely";"is unlikely";"none"
351;"655ace3085c1b2c22a1e3007046a64f831ce6623d22c53544d53c7d94b901a5a";1456169589824;3;88;8;8;"is_certainly";"possible";8169;"possible";"is_certainly possible";"low"
352;"655ace3085c1b2c22a1e3007046a64f831ce6623d22c53544d53c7d94b901a5a";1456169599632;4;103;10;3;"is";"unlikely";9805;"unlikely";"is unlikely";"none"
353;"655ace3085c1b2c22a1e3007046a64f831ce6623d22c53544d53c7d94b901a5a";1456169608088;5;20;2;0;"is";"possible";8450;"possible";"is possible";"high"
354;"655ace3085c1b2c22a1e3007046a64f831ce6623d22c53544d53c7d94b901a5a";1456169613855;6;42;4;2;"is";"possible";5762;"possible";"is possible";"high"
355;"655ace3085c1b2c22a1e3007046a64f831ce6623d22c53544d53c7d94b901a5a";1456169621636;7;43;4;3;"is";"probable";7776;"likely";"is likely";"high"
356;"655ace3085c1b2c22a1e3007046a64f831ce6623d22c53544d53c7d94b901a5a";1456169629963;8;105;10;5;"is";"possible";8323;"possible";"is possible";"none"
357;"655ace3085c1b2c22a1e3007046a64f831ce6623d22c53544d53c7d94b901a5a";1456169636489;9;41;4;1;"is";"unlikely";6522;"unlikely";"is unlikely";"high"
358;"655ace3085c1b2c22a1e3007046a64f831ce6623d22c53544d53c7d94b901a5a";1456169641762;10;107;10;7;"is";"likely";5266;"likely";"is likely";"none"
359;"655ace3085c1b2c22a1e3007046a64f831ce6623d22c53544d53c7d94b901a5a";1456169647143;11;22;2;2;"is";"possible";5377;"possible";"is possible";"high"
360;"655ace3085c1b2c22a1e3007046a64f831ce6623d22c53544d53c7d94b901a5a";1456169652646;12;84;8;4;"is";"possible";5495;"possible";"is possible";"low"
361;"abaaaf0b4841b902ee7223e111ffaff31c820a840fad8f452240f221e9e5e3fd";1456259691407;1;80;8;0;"is";"unlikely";28573;"unlikely";"is unlikely";"low"
362;"abaaaf0b4841b902ee7223e111ffaff31c820a840fad8f452240f221e9e5e3fd";1456259698441;2;108;10;8;"is";"probable";7029;"likely";"is likely";"none"
363;"abaaaf0b4841b902ee7223e111ffaff31c820a840fad8f452240f221e9e5e3fd";1456259706319;3;84;8;4;"might_be";"possible";7876;"possible";"might_be possible";"low"
364;"abaaaf0b4841b902ee7223e111ffaff31c820a840fad8f452240f221e9e5e3fd";1456259711892;4;107;10;7;"is";"probable";5572;"likely";"is likely";"none"
365;"abaaaf0b4841b902ee7223e111ffaff31c820a840fad8f452240f221e9e5e3fd";1456259718419;5;82;8;2;"is";"unlikely";6525;"unlikely";"is unlikely";"low"
366;"abaaaf0b4841b902ee7223e111ffaff31c820a840fad8f452240f221e9e5e3fd";1456259724676;6;22;2;2;"is";"possible";6256;"possible";"is possible";"high"
367;"abaaaf0b4841b902ee7223e111ffaff31c820a840fad8f452240f221e9e5e3fd";1456259729227;7;42;4;2;"is";"possible";4550;"possible";"is possible";"high"
368;"abaaaf0b4841b902ee7223e111ffaff31c820a840fad8f452240f221e9e5e3fd";1456259734934;8;86;8;6;"is";"probable";5706;"likely";"is likely";"low"
369;"abaaaf0b4841b902ee7223e111ffaff31c820a840fad8f452240f221e9e5e3fd";1456259741097;9;102;10;2;"is";"unlikely";6161;"unlikely";"is unlikely";"none"
370;"abaaaf0b4841b902ee7223e111ffaff31c820a840fad8f452240f221e9e5e3fd";1456259750876;10;103;10;3;"is";"unlikely";9778;"unlikely";"is unlikely";"none"
371;"abaaaf0b4841b902ee7223e111ffaff31c820a840fad8f452240f221e9e5e3fd";1456259759948;11;41;4;1;"is";"possible";9068;"possible";"is possible";"high"
372;"abaaaf0b4841b902ee7223e111ffaff31c820a840fad8f452240f221e9e5e3fd";1456259764166;12;20;2;0;"is";"possible";4217;"possible";"is possible";"high"
373;"6a535726edba981fa24387163d7ece1a9a3c924343f921a451b55e1600d676be";1456170412770;1;22;2;2;"might_be";"possible";47557;"possible";"might_be possible";"high"
374;"6a535726edba981fa24387163d7ece1a9a3c924343f921a451b55e1600d676be";1456170433301;2;41;4;1;"is_probably";"unlikely";20526;"unlikely";"is_probably unlikely";"high"
375;"6a535726edba981fa24387163d7ece1a9a3c924343f921a451b55e1600d676be";1456170474040;3;102;10;2;"is_probably";"unlikely";40738;"unlikely";"is_probably unlikely";"none"
376;"6a535726edba981fa24387163d7ece1a9a3c924343f921a451b55e1600d676be";1456170504312;4;86;8;6;"is";"probable";30266;"likely";"is likely";"low"
377;"6a535726edba981fa24387163d7ece1a9a3c924343f921a451b55e1600d676be";1456170518832;5;84;8;4;"might_be";"possible";14518;"possible";"might_be possible";"low"
378;"6a535726edba981fa24387163d7ece1a9a3c924343f921a451b55e1600d676be";1456170532347;6;42;4;2;"might_be";"possible";13509;"possible";"might_be possible";"high"
379;"6a535726edba981fa24387163d7ece1a9a3c924343f921a451b55e1600d676be";1456170554608;7;107;10;7;"is";"probable";22259;"likely";"is likely";"none"
380;"6a535726edba981fa24387163d7ece1a9a3c924343f921a451b55e1600d676be";1456170567550;8;43;4;3;"might_be";"possible";12937;"possible";"might_be possible";"high"
381;"6a535726edba981fa24387163d7ece1a9a3c924343f921a451b55e1600d676be";1456170579502;9;88;8;8;"is_certainly";"probable";11947;"likely";"is_certainly likely";"low"
382;"6a535726edba981fa24387163d7ece1a9a3c924343f921a451b55e1600d676be";1456170592384;10;82;8;2;"is";"probable";12881;"likely";"is likely";"low"
383;"6a535726edba981fa24387163d7ece1a9a3c924343f921a451b55e1600d676be";1456170605105;11;108;10;8;"is";"probable";12720;"likely";"is likely";"none"
384;"6a535726edba981fa24387163d7ece1a9a3c924343f921a451b55e1600d676be";1456170621713;12;105;10;5;"might_be";"possible";16606;"possible";"might_be possible";"none"
385;"dd98e178e75f8f95fe98cfdcc68d8e11581e0f761f8e69e3a49c8f6fb3ff3716";1456259664136;1;107;10;7;"is_probably";"likely";33800;"likely";"is_probably likely";"none"
386;"dd98e178e75f8f95fe98cfdcc68d8e11581e0f761f8e69e3a49c8f6fb3ff3716";1456259676760;2;105;10;5;"is";"possible";12618;"possible";"is possible";"none"
387;"dd98e178e75f8f95fe98cfdcc68d8e11581e0f761f8e69e3a49c8f6fb3ff3716";1456259685841;3;42;4;2;"might_be";"possible";9076;"possible";"might_be possible";"high"
388;"dd98e178e75f8f95fe98cfdcc68d8e11581e0f761f8e69e3a49c8f6fb3ff3716";1456259692389;4;86;8;6;"is_probably";"possible";6542;"possible";"is_probably possible";"low"
389;"dd98e178e75f8f95fe98cfdcc68d8e11581e0f761f8e69e3a49c8f6fb3ff3716";1456259702460;5;102;10;2;"is_probably";"unlikely";10064;"unlikely";"is_probably unlikely";"none"
390;"dd98e178e75f8f95fe98cfdcc68d8e11581e0f761f8e69e3a49c8f6fb3ff3716";1456259711604;6;41;4;1;"is";"unlikely";9130;"unlikely";"is unlikely";"high"
391;"dd98e178e75f8f95fe98cfdcc68d8e11581e0f761f8e69e3a49c8f6fb3ff3716";1456259718452;7;84;8;4;"is";"possible";6833;"possible";"is possible";"low"
392;"dd98e178e75f8f95fe98cfdcc68d8e11581e0f761f8e69e3a49c8f6fb3ff3716";1456259724685;8;82;8;2;"is";"unlikely";6224;"unlikely";"is unlikely";"low"
393;"dd98e178e75f8f95fe98cfdcc68d8e11581e0f761f8e69e3a49c8f6fb3ff3716";1456259736995;9;22;2;2;"is_certainly";"likely";12302;"likely";"is_certainly likely";"high"
394;"dd98e178e75f8f95fe98cfdcc68d8e11581e0f761f8e69e3a49c8f6fb3ff3716";1456259744524;10;43;4;3;"is_probably";"likely";7522;"likely";"is_probably likely";"high"
395;"dd98e178e75f8f95fe98cfdcc68d8e11581e0f761f8e69e3a49c8f6fb3ff3716";1456259752998;11;80;8;0;"is_certainly";"unlikely";8468;"unlikely";"is_certainly unlikely";"low"
396;"dd98e178e75f8f95fe98cfdcc68d8e11581e0f761f8e69e3a49c8f6fb3ff3716";1456259763763;12;20;2;0;"is_certainly";"unlikely";10759;"unlikely";"is_certainly unlikely";"high"
397;"27a4043dd6abd6c79b66fdb224609001434cd104232151045e79e5ccf1326508";1456169532793;1;108;10;8;"is";"possible";16559;"possible";"is possible";"none"
398;"27a4043dd6abd6c79b66fdb224609001434cd104232151045e79e5ccf1326508";1456169545809;2;41;4;1;"is_probably";"probable";13010;"likely";"is_probably likely";"high"
399;"27a4043dd6abd6c79b66fdb224609001434cd104232151045e79e5ccf1326508";1456169553702;3;22;2;2;"might_be";"possible";7889;"possible";"might_be possible";"high"
400;"27a4043dd6abd6c79b66fdb224609001434cd104232151045e79e5ccf1326508";1456169560741;4;43;4;3;"might_be";"probable";7031;"likely";"might_be likely";"high"
401;"27a4043dd6abd6c79b66fdb224609001434cd104232151045e79e5ccf1326508";1456169575613;5;102;10;2;"might_be";"unlikely";14866;"unlikely";"might_be unlikely";"none"
402;"27a4043dd6abd6c79b66fdb224609001434cd104232151045e79e5ccf1326508";1456169586804;6;86;8;6;"is_certainly";"probable";11186;"likely";"is_certainly likely";"low"
403;"27a4043dd6abd6c79b66fdb224609001434cd104232151045e79e5ccf1326508";1456169591876;7;88;8;8;"is_certainly";"probable";5067;"likely";"is_certainly likely";"low"
404;"27a4043dd6abd6c79b66fdb224609001434cd104232151045e79e5ccf1326508";1456169598902;8;42;4;2;"might_be";"possible";7020;"possible";"might_be possible";"high"
405;"27a4043dd6abd6c79b66fdb224609001434cd104232151045e79e5ccf1326508";1456169605909;9;82;8;2;"is_probably";"unlikely";7002;"unlikely";"is_probably unlikely";"low"
406;"27a4043dd6abd6c79b66fdb224609001434cd104232151045e79e5ccf1326508";1456169617117;10;103;10;3;"might_be";"possible";11200;"possible";"might_be possible";"none"
407;"27a4043dd6abd6c79b66fdb224609001434cd104232151045e79e5ccf1326508";1456169624499;11;80;8;0;"is_certainly";"unlikely";7368;"unlikely";"is_certainly unlikely";"low"
408;"27a4043dd6abd6c79b66fdb224609001434cd104232151045e79e5ccf1326508";1456169631491;12;20;2;0;"might_be";"likely";6986;"likely";"might_be likely";"high"
409;"3095a2ef9029c578d0a1da7ea7984d38d38bee50dd79ddf19bdf58124450a8a0";1456169642195;1;102;10;2;"is_certainly";"unlikely";19044;"unlikely";"is_certainly unlikely";"none"
410;"3095a2ef9029c578d0a1da7ea7984d38d38bee50dd79ddf19bdf58124450a8a0";1456169659741;2;108;10;8;"is_certainly";"probable";17542;"likely";"is_certainly likely";"none"
411;"3095a2ef9029c578d0a1da7ea7984d38d38bee50dd79ddf19bdf58124450a8a0";1456169680966;3;80;8;0;"is_certainly";"unlikely";21223;"unlikely";"is_certainly unlikely";"low"
412;"3095a2ef9029c578d0a1da7ea7984d38d38bee50dd79ddf19bdf58124450a8a0";1456169687942;4;107;10;7;"is_probably";"probable";6972;"likely";"is_probably likely";"none"
413;"3095a2ef9029c578d0a1da7ea7984d38d38bee50dd79ddf19bdf58124450a8a0";1456169702564;5;86;8;6;"is_probably";"probable";14621;"likely";"is_probably likely";"low"
414;"3095a2ef9029c578d0a1da7ea7984d38d38bee50dd79ddf19bdf58124450a8a0";1456169712300;6;84;8;4;"is";"possible";9735;"possible";"is possible";"low"
415;"3095a2ef9029c578d0a1da7ea7984d38d38bee50dd79ddf19bdf58124450a8a0";1456169718060;7;22;2;2;"might_be";"possible";5756;"possible";"might_be possible";"high"
416;"3095a2ef9029c578d0a1da7ea7984d38d38bee50dd79ddf19bdf58124450a8a0";1456169727608;8;88;8;8;"is_probably";"probable";9547;"likely";"is_probably likely";"low"
417;"3095a2ef9029c578d0a1da7ea7984d38d38bee50dd79ddf19bdf58124450a8a0";1456169733338;9;41;4;1;"is_probably";"unlikely";5728;"unlikely";"is_probably unlikely";"high"
418;"3095a2ef9029c578d0a1da7ea7984d38d38bee50dd79ddf19bdf58124450a8a0";1456169742592;10;105;10;5;"is_probably";"possible";9252;"possible";"is_probably possible";"none"
419;"3095a2ef9029c578d0a1da7ea7984d38d38bee50dd79ddf19bdf58124450a8a0";1456169750372;11;82;8;2;"is_probably";"unlikely";7777;"unlikely";"is_probably unlikely";"low"
420;"3095a2ef9029c578d0a1da7ea7984d38d38bee50dd79ddf19bdf58124450a8a0";1456169885232;12;43;4;3;"might_be";"possible";134855;"possible";"might_be possible";"high"
421;"593e63d6523a3d9c5f1993814e0e09996f9b3c2291761489e02148b8317576df";1456259554596;1;86;8;6;"is_probably";"unlikely";12585;"unlikely";"is_probably unlikely";"low"
422;"593e63d6523a3d9c5f1993814e0e09996f9b3c2291761489e02148b8317576df";1456259559979;2;22;2;2;"is_probably";"possible";5382;"possible";"is_probably possible";"high"
423;"593e63d6523a3d9c5f1993814e0e09996f9b3c2291761489e02148b8317576df";1456259563022;3;105;10;5;"might_be";"probable";3042;"likely";"might_be likely";"none"
424;"593e63d6523a3d9c5f1993814e0e09996f9b3c2291761489e02148b8317576df";1456259565865;4;41;4;1;"might_be";"possible";2841;"possible";"might_be possible";"high"
425;"593e63d6523a3d9c5f1993814e0e09996f9b3c2291761489e02148b8317576df";1456259568274;5;107;10;7;"is_probably";"probable";2408;"likely";"is_probably likely";"none"
426;"593e63d6523a3d9c5f1993814e0e09996f9b3c2291761489e02148b8317576df";1456259573610;6;108;10;8;"is_probably";"possible";5334;"possible";"is_probably possible";"none"
427;"593e63d6523a3d9c5f1993814e0e09996f9b3c2291761489e02148b8317576df";1456259576471;7;42;4;2;"is_probably";"probable";2860;"likely";"is_probably likely";"high"
428;"593e63d6523a3d9c5f1993814e0e09996f9b3c2291761489e02148b8317576df";1456259578601;8;43;4;3;"might_be";"possible";2129;"possible";"might_be possible";"high"
429;"593e63d6523a3d9c5f1993814e0e09996f9b3c2291761489e02148b8317576df";1456259580345;9;82;8;2;"is_probably";"possible";1742;"possible";"is_probably possible";"low"
430;"593e63d6523a3d9c5f1993814e0e09996f9b3c2291761489e02148b8317576df";1456259582804;10;20;2;0;"is_certainly";"probable";2457;"likely";"is_certainly likely";"high"
431;"593e63d6523a3d9c5f1993814e0e09996f9b3c2291761489e02148b8317576df";1456259585426;11;102;10;2;"is_probably";"unlikely";2621;"unlikely";"is_probably unlikely";"none"
432;"593e63d6523a3d9c5f1993814e0e09996f9b3c2291761489e02148b8317576df";1456259588923;12;80;8;0;"might_be";"likely";3496;"likely";"might_be likely";"low"
433;"1d69378ef846539aba295ce071eec16e4d101f97cd05cb37bb3aa864b6859a71";1456260648667;1;103;10;3;"is";"unlikely";26195;"unlikely";"is unlikely";"none"
434;"1d69378ef846539aba295ce071eec16e4d101f97cd05cb37bb3aa864b6859a71";1456260662548;2;86;8;6;"might_be";"likely";13881;"likely";"might_be likely";"low"
435;"1d69378ef846539aba295ce071eec16e4d101f97cd05cb37bb3aa864b6859a71";1456260692466;3;108;10;8;"is";"likely";29883;"likely";"is likely";"none"
436;"1d69378ef846539aba295ce071eec16e4d101f97cd05cb37bb3aa864b6859a71";1456260703597;4;82;8;2;"is";"unlikely";11115;"unlikely";"is unlikely";"low"
437;"1d69378ef846539aba295ce071eec16e4d101f97cd05cb37bb3aa864b6859a71";1456260721629;5;42;4;2;"is";"probable";18032;"likely";"is likely";"high"
438;"1d69378ef846539aba295ce071eec16e4d101f97cd05cb37bb3aa864b6859a71";1456260733728;6;22;2;2;"is_probably";"probable";12083;"likely";"is_probably likely";"high"
439;"1d69378ef846539aba295ce071eec16e4d101f97cd05cb37bb3aa864b6859a71";1456260744013;7;41;4;1;"is";"unlikely";10285;"unlikely";"is unlikely";"high"
440;"1d69378ef846539aba295ce071eec16e4d101f97cd05cb37bb3aa864b6859a71";1456260752643;8;80;8;0;"is_certainly";"unlikely";8598;"unlikely";"is_certainly unlikely";"low"
441;"1d69378ef846539aba295ce071eec16e4d101f97cd05cb37bb3aa864b6859a71";1456260772981;9;84;8;4;"is";"probable";20338;"likely";"is likely";"low"
442;"1d69378ef846539aba295ce071eec16e4d101f97cd05cb37bb3aa864b6859a71";1456260784625;10;20;2;0;"might_be";"unlikely";11628;"unlikely";"might_be unlikely";"high"
443;"1d69378ef846539aba295ce071eec16e4d101f97cd05cb37bb3aa864b6859a71";1456260791560;11;88;8;8;"is_certainly";"likely";6920;"likely";"is_certainly likely";"low"
444;"1d69378ef846539aba295ce071eec16e4d101f97cd05cb37bb3aa864b6859a71";1456260802962;12;107;10;7;"is";"likely";11402;"likely";"is likely";"none"
445;"b02efd568d24dbce364560b2f7e138fe15f2438c19eef921376003f327c7f9f6";1456169746134;1;80;8;0;"is";"unlikely";9859;"unlikely";"is unlikely";"low"
446;"b02efd568d24dbce364560b2f7e138fe15f2438c19eef921376003f327c7f9f6";1456169761376;2;84;8;4;"is_probably";"possible";15240;"possible";"is_probably possible";"low"
447;"b02efd568d24dbce364560b2f7e138fe15f2438c19eef921376003f327c7f9f6";1456169767795;3;88;8;8;"is_probably";"probable";6412;"likely";"is_probably likely";"low"
448;"b02efd568d24dbce364560b2f7e138fe15f2438c19eef921376003f327c7f9f6";1456169774204;4;82;8;2;"might_be";"possible";6406;"possible";"might_be possible";"low"
449;"b02efd568d24dbce364560b2f7e138fe15f2438c19eef921376003f327c7f9f6";1456169780506;5;20;2;0;"is";"unlikely";6299;"unlikely";"is unlikely";"high"
450;"b02efd568d24dbce364560b2f7e138fe15f2438c19eef921376003f327c7f9f6";1456169786164;6;108;10;8;"is";"likely";5656;"likely";"is likely";"none"
451;"b02efd568d24dbce364560b2f7e138fe15f2438c19eef921376003f327c7f9f6";1456169792514;7;41;4;1;"is";"unlikely";6346;"unlikely";"is unlikely";"high"
452;"b02efd568d24dbce364560b2f7e138fe15f2438c19eef921376003f327c7f9f6";1456169798212;8;22;2;2;"is";"likely";5695;"likely";"is likely";"high"
453;"b02efd568d24dbce364560b2f7e138fe15f2438c19eef921376003f327c7f9f6";1456169802124;9;42;4;2;"is";"possible";3909;"possible";"is possible";"high"
454;"b02efd568d24dbce364560b2f7e138fe15f2438c19eef921376003f327c7f9f6";1456169809044;10;86;8;6;"is";"likely";6918;"likely";"is likely";"low"
455;"b02efd568d24dbce364560b2f7e138fe15f2438c19eef921376003f327c7f9f6";1456169813527;11;102;10;2;"is";"unlikely";4481;"unlikely";"is unlikely";"none"
456;"b02efd568d24dbce364560b2f7e138fe15f2438c19eef921376003f327c7f9f6";1456169817230;12;105;10;5;"is";"possible";3700;"possible";"is possible";"none"
457;"0ecbd8279d6715cdc37b8b717959263e1e94449bafacf8cf072eb900c40286a7";1456169731540;1;80;8;0;"is_certainly";"unlikely";41913;"unlikely";"is_certainly unlikely";"low"
458;"0ecbd8279d6715cdc37b8b717959263e1e94449bafacf8cf072eb900c40286a7";1456169793083;2;86;8;6;"is";"probable";61540;"likely";"is likely";"low"
459;"0ecbd8279d6715cdc37b8b717959263e1e94449bafacf8cf072eb900c40286a7";1456169824587;3;82;8;2;"is";"unlikely";31501;"unlikely";"is unlikely";"low"
460;"0ecbd8279d6715cdc37b8b717959263e1e94449bafacf8cf072eb900c40286a7";1456169833275;4;88;8;8;"is_certainly";"probable";8687;"likely";"is_certainly likely";"low"
461;"0ecbd8279d6715cdc37b8b717959263e1e94449bafacf8cf072eb900c40286a7";1456169855332;5;108;10;8;"is";"probable";22054;"likely";"is likely";"none"
462;"0ecbd8279d6715cdc37b8b717959263e1e94449bafacf8cf072eb900c40286a7";1456169870108;6;41;4;1;"is";"possible";14773;"possible";"is possible";"high"
463;"0ecbd8279d6715cdc37b8b717959263e1e94449bafacf8cf072eb900c40286a7";1456169880259;7;103;10;3;"is";"unlikely";10150;"unlikely";"is unlikely";"none"
464;"0ecbd8279d6715cdc37b8b717959263e1e94449bafacf8cf072eb900c40286a7";1456169890236;8;20;2;0;"is";"possible";9975;"possible";"is possible";"high"
465;"0ecbd8279d6715cdc37b8b717959263e1e94449bafacf8cf072eb900c40286a7";1456169899651;9;84;8;4;"is";"possible";9414;"possible";"is possible";"low"
466;"0ecbd8279d6715cdc37b8b717959263e1e94449bafacf8cf072eb900c40286a7";1456169968019;10;102;10;2;"is";"unlikely";68367;"unlikely";"is unlikely";"none"
467;"0ecbd8279d6715cdc37b8b717959263e1e94449bafacf8cf072eb900c40286a7";1456169980500;11;105;10;5;"is_certainly";"possible";12478;"possible";"is_certainly possible";"none"
468;"0ecbd8279d6715cdc37b8b717959263e1e94449bafacf8cf072eb900c40286a7";1456169989651;12;42;4;2;"is";"possible";9150;"possible";"is possible";"high"
469;"63c76b859c89c77c5fa1ef3c6c6684ebfc4e3ab34157b989c7d9ed5fb0d672e9";1456307912174;1;42;4;2;"is";"possible";17854;"possible";"is possible";"high"
470;"63c76b859c89c77c5fa1ef3c6c6684ebfc4e3ab34157b989c7d9ed5fb0d672e9";1456307920064;2;86;8;6;"is";"unlikely";7888;"unlikely";"is unlikely";"low"
471;"63c76b859c89c77c5fa1ef3c6c6684ebfc4e3ab34157b989c7d9ed5fb0d672e9";1456307926686;3;103;10;3;"is";"possible";6621;"possible";"is possible";"none"
472;"63c76b859c89c77c5fa1ef3c6c6684ebfc4e3ab34157b989c7d9ed5fb0d672e9";1456307937191;4;108;10;8;"is";"likely";10503;"likely";"is likely";"none"
473;"63c76b859c89c77c5fa1ef3c6c6684ebfc4e3ab34157b989c7d9ed5fb0d672e9";1456307943675;5;41;4;1;"is";"possible";6483;"possible";"is possible";"high"
474;"63c76b859c89c77c5fa1ef3c6c6684ebfc4e3ab34157b989c7d9ed5fb0d672e9";1456307952935;6;84;8;4;"is";"possible";9257;"possible";"is possible";"low"
475;"63c76b859c89c77c5fa1ef3c6c6684ebfc4e3ab34157b989c7d9ed5fb0d672e9";1456307961351;7;80;8;0;"is";"possible";8414;"possible";"is possible";"low"
476;"63c76b859c89c77c5fa1ef3c6c6684ebfc4e3ab34157b989c7d9ed5fb0d672e9";1456307970575;8;107;10;7;"is";"likely";9222;"likely";"is likely";"none"
477;"63c76b859c89c77c5fa1ef3c6c6684ebfc4e3ab34157b989c7d9ed5fb0d672e9";1456307974567;9;105;10;5;"is";"possible";3991;"possible";"is possible";"none"
478;"63c76b859c89c77c5fa1ef3c6c6684ebfc4e3ab34157b989c7d9ed5fb0d672e9";1456307982807;10;43;4;3;"is";"possible";8239;"possible";"is possible";"high"
479;"63c76b859c89c77c5fa1ef3c6c6684ebfc4e3ab34157b989c7d9ed5fb0d672e9";1456307987695;11;102;10;2;"is";"unlikely";4886;"unlikely";"is unlikely";"none"
480;"63c76b859c89c77c5fa1ef3c6c6684ebfc4e3ab34157b989c7d9ed5fb0d672e9";1456307992247;12;20;2;0;"is";"possible";4551;"possible";"is possible";"high"
481;"3f12db75b3e9e7380c416bba650d2d6c81716d9f40753b8b582882646dfe12ff";1456170153494;1;102;10;2;"is_certainly";"unlikely";20506;"unlikely";"is_certainly unlikely";"none"
482;"3f12db75b3e9e7380c416bba650d2d6c81716d9f40753b8b582882646dfe12ff";1456170162606;2;20;2;0;"is";"likely";9109;"likely";"is likely";"high"
483;"3f12db75b3e9e7380c416bba650d2d6c81716d9f40753b8b582882646dfe12ff";1456170170583;3;42;4;2;"is";"likely";7976;"likely";"is likely";"high"
484;"3f12db75b3e9e7380c416bba650d2d6c81716d9f40753b8b582882646dfe12ff";1456170179693;4;107;10;7;"is";"probable";9109;"likely";"is likely";"none"
485;"3f12db75b3e9e7380c416bba650d2d6c81716d9f40753b8b582882646dfe12ff";1456170190038;5;88;8;8;"is_certainly";"likely";10344;"likely";"is_certainly likely";"low"
486;"3f12db75b3e9e7380c416bba650d2d6c81716d9f40753b8b582882646dfe12ff";1456170195950;6;84;8;4;"is";"unlikely";5906;"unlikely";"is unlikely";"low"
487;"3f12db75b3e9e7380c416bba650d2d6c81716d9f40753b8b582882646dfe12ff";1456170202492;7;43;4;3;"is";"unlikely";6541;"unlikely";"is unlikely";"high"
488;"3f12db75b3e9e7380c416bba650d2d6c81716d9f40753b8b582882646dfe12ff";1456170206812;8;86;8;6;"is";"likely";4318;"likely";"is likely";"low"
489;"3f12db75b3e9e7380c416bba650d2d6c81716d9f40753b8b582882646dfe12ff";1456170213260;9;82;8;2;"is";"unlikely";6446;"unlikely";"is unlikely";"low"
490;"3f12db75b3e9e7380c416bba650d2d6c81716d9f40753b8b582882646dfe12ff";1456170220285;10;103;10;3;"is";"unlikely";7024;"unlikely";"is unlikely";"none"
491;"3f12db75b3e9e7380c416bba650d2d6c81716d9f40753b8b582882646dfe12ff";1456170224196;11;108;10;8;"is_probably";"likely";3910;"likely";"is_probably likely";"none"
492;"3f12db75b3e9e7380c416bba650d2d6c81716d9f40753b8b582882646dfe12ff";1456170227901;12;80;8;0;"is";"unlikely";3704;"unlikely";"is unlikely";"low"
493;"136ed671740fcdd1a57affb3fdc61b98ec1b95efd36d7aed3293f8916948ee8e";1455802080794;1;102;10;2;"is_certainly";"unlikely";28729;"unlikely";"is_certainly unlikely";"none"
494;"136ed671740fcdd1a57affb3fdc61b98ec1b95efd36d7aed3293f8916948ee8e";1455802098459;2;103;10;3;"is";"unlikely";17644;"unlikely";"is unlikely";"none"
495;"136ed671740fcdd1a57affb3fdc61b98ec1b95efd36d7aed3293f8916948ee8e";1455802115438;3;88;8;8;"is_certainly";"likely";16958;"likely";"is_certainly likely";"low"
496;"136ed671740fcdd1a57affb3fdc61b98ec1b95efd36d7aed3293f8916948ee8e";1455802130039;4;84;8;4;"is";"possible";14581;"possible";"is possible";"low"
497;"136ed671740fcdd1a57affb3fdc61b98ec1b95efd36d7aed3293f8916948ee8e";1455802140955;5;80;8;0;"is_certainly";"unlikely";10892;"unlikely";"is_certainly unlikely";"low"
498;"136ed671740fcdd1a57affb3fdc61b98ec1b95efd36d7aed3293f8916948ee8e";1455802151970;6;20;2;0;"is";"unlikely";10991;"unlikely";"is unlikely";"high"
499;"136ed671740fcdd1a57affb3fdc61b98ec1b95efd36d7aed3293f8916948ee8e";1455802255830;7;86;8;6;"is";"likely";103839;"likely";"is likely";"low"
500;"136ed671740fcdd1a57affb3fdc61b98ec1b95efd36d7aed3293f8916948ee8e";1455802308019;8;108;10;8;"is_certainly";"likely";52163;"likely";"is_certainly likely";"none"
501;"136ed671740fcdd1a57affb3fdc61b98ec1b95efd36d7aed3293f8916948ee8e";1455802313558;9;82;8;2;"is";"unlikely";5519;"unlikely";"is unlikely";"low"
502;"136ed671740fcdd1a57affb3fdc61b98ec1b95efd36d7aed3293f8916948ee8e";1455802320339;10;107;10;7;"is";"probable";6760;"likely";"is likely";"none"
503;"136ed671740fcdd1a57affb3fdc61b98ec1b95efd36d7aed3293f8916948ee8e";1455802325581;11;42;4;2;"is";"possible";5222;"possible";"is possible";"high"
504;"136ed671740fcdd1a57affb3fdc61b98ec1b95efd36d7aed3293f8916948ee8e";1455802334039;12;41;4;1;"is";"unlikely";8434;"unlikely";"is unlikely";"high"
505;"37887543cba64d19064b388e3dd8d4446436cae142a19b9aaacfa6f97cbaae4a";1456181954034;1;22;2;2;"is";"likely";12799;"likely";"is likely";"high"
506;"37887543cba64d19064b388e3dd8d4446436cae142a19b9aaacfa6f97cbaae4a";1456181965348;2;88;8;8;"is_certainly";"probable";11312;"likely";"is_certainly likely";"low"
507;"37887543cba64d19064b388e3dd8d4446436cae142a19b9aaacfa6f97cbaae4a";1456181980467;3;102;10;2;"is";"unlikely";15116;"unlikely";"is unlikely";"none"
508;"37887543cba64d19064b388e3dd8d4446436cae142a19b9aaacfa6f97cbaae4a";1456181990619;4;43;4;3;"might_be";"likely";10150;"likely";"might_be likely";"high"
509;"37887543cba64d19064b388e3dd8d4446436cae142a19b9aaacfa6f97cbaae4a";1456181999077;5;107;10;7;"is";"probable";8455;"likely";"is likely";"none"
510;"37887543cba64d19064b388e3dd8d4446436cae142a19b9aaacfa6f97cbaae4a";1456182006400;6;108;10;8;"is_certainly";"possible";7321;"possible";"is_certainly possible";"none"
511;"37887543cba64d19064b388e3dd8d4446436cae142a19b9aaacfa6f97cbaae4a";1456182017688;7;103;10;3;"is";"unlikely";11286;"unlikely";"is unlikely";"none"
512;"37887543cba64d19064b388e3dd8d4446436cae142a19b9aaacfa6f97cbaae4a";1456182025706;8;105;10;5;"is_probably";"probable";8016;"likely";"is_probably likely";"none"
513;"37887543cba64d19064b388e3dd8d4446436cae142a19b9aaacfa6f97cbaae4a";1456182037308;9;80;8;0;"is_certainly";"unlikely";11599;"unlikely";"is_certainly unlikely";"low"
514;"37887543cba64d19064b388e3dd8d4446436cae142a19b9aaacfa6f97cbaae4a";1456182041660;10;86;8;6;"is_probably";"probable";4350;"likely";"is_probably likely";"low"
515;"37887543cba64d19064b388e3dd8d4446436cae142a19b9aaacfa6f97cbaae4a";1456182048271;11;82;8;2;"might_be";"unlikely";6609;"unlikely";"might_be unlikely";"low"
516;"37887543cba64d19064b388e3dd8d4446436cae142a19b9aaacfa6f97cbaae4a";1456182054157;12;84;8;4;"might_be";"possible";5884;"possible";"might_be possible";"low"
517;"a7f5ff69aecde9c6597634880e8b06b9c8072d26252de7202df06e69b28ad116";1456262140317;1;108;10;8;"is";"likely";25399;"likely";"is likely";"none"
518;"a7f5ff69aecde9c6597634880e8b06b9c8072d26252de7202df06e69b28ad116";1456262158561;2;42;4;2;"is";"possible";18240;"possible";"is possible";"high"
519;"a7f5ff69aecde9c6597634880e8b06b9c8072d26252de7202df06e69b28ad116";1456262175685;3;86;8;6;"is";"possible";17121;"possible";"is possible";"low"
520;"a7f5ff69aecde9c6597634880e8b06b9c8072d26252de7202df06e69b28ad116";1456262185548;4;102;10;2;"is";"unlikely";9859;"unlikely";"is unlikely";"none"
521;"a7f5ff69aecde9c6597634880e8b06b9c8072d26252de7202df06e69b28ad116";1456262193567;5;43;4;3;"is";"likely";8011;"likely";"is likely";"high"
522;"a7f5ff69aecde9c6597634880e8b06b9c8072d26252de7202df06e69b28ad116";1456262212371;6;84;8;4;"is";"possible";18802;"possible";"is possible";"low"
523;"a7f5ff69aecde9c6597634880e8b06b9c8072d26252de7202df06e69b28ad116";1456262221663;7;105;10;5;"is";"possible";9286;"possible";"is possible";"none"
524;"a7f5ff69aecde9c6597634880e8b06b9c8072d26252de7202df06e69b28ad116";1456262231481;8;22;2;2;"is";"likely";9814;"likely";"is likely";"high"
525;"a7f5ff69aecde9c6597634880e8b06b9c8072d26252de7202df06e69b28ad116";1456262239928;9;41;4;1;"is";"unlikely";8445;"unlikely";"is unlikely";"high"
526;"a7f5ff69aecde9c6597634880e8b06b9c8072d26252de7202df06e69b28ad116";1456262248131;10;20;2;0;"is";"unlikely";8199;"unlikely";"is unlikely";"high"
527;"a7f5ff69aecde9c6597634880e8b06b9c8072d26252de7202df06e69b28ad116";1456262258024;11;80;8;0;"is_certainly";"unlikely";9891;"unlikely";"is_certainly unlikely";"low"
528;"a7f5ff69aecde9c6597634880e8b06b9c8072d26252de7202df06e69b28ad116";1456262266780;12;107;10;7;"is";"probable";8751;"likely";"is likely";"none"
529;"fe332ff8b579c4a8b977117c1701d7d09e47bf5cbef6a335dd54b02c84a34809";1456259637212;1;42;4;2;"is_probably";"possible";10752;"possible";"is_probably possible";"high"
530;"fe332ff8b579c4a8b977117c1701d7d09e47bf5cbef6a335dd54b02c84a34809";1456259652512;2;84;8;4;"is";"probable";15296;"likely";"is likely";"low"
531;"fe332ff8b579c4a8b977117c1701d7d09e47bf5cbef6a335dd54b02c84a34809";1456259660140;3;82;8;2;"is";"unlikely";7621;"unlikely";"is unlikely";"low"
532;"fe332ff8b579c4a8b977117c1701d7d09e47bf5cbef6a335dd54b02c84a34809";1456259666142;4;105;10;5;"is";"possible";6000;"possible";"is possible";"none"
533;"fe332ff8b579c4a8b977117c1701d7d09e47bf5cbef6a335dd54b02c84a34809";1456259671304;5;41;4;1;"is_probably";"possible";5159;"possible";"is_probably possible";"high"
534;"fe332ff8b579c4a8b977117c1701d7d09e47bf5cbef6a335dd54b02c84a34809";1456259678918;6;80;8;0;"might_be";"unlikely";7612;"unlikely";"might_be unlikely";"low"
535;"fe332ff8b579c4a8b977117c1701d7d09e47bf5cbef6a335dd54b02c84a34809";1456259685152;7;86;8;6;"is";"likely";6231;"likely";"is likely";"low"
536;"fe332ff8b579c4a8b977117c1701d7d09e47bf5cbef6a335dd54b02c84a34809";1456259692421;8;22;2;2;"might_be";"possible";7266;"possible";"might_be possible";"high"
537;"fe332ff8b579c4a8b977117c1701d7d09e47bf5cbef6a335dd54b02c84a34809";1456259731554;9;102;10;2;"is";"unlikely";39131;"unlikely";"is unlikely";"none"
538;"fe332ff8b579c4a8b977117c1701d7d09e47bf5cbef6a335dd54b02c84a34809";1456259736296;10;20;2;0;"might_be";"possible";4740;"possible";"might_be possible";"high"
539;"fe332ff8b579c4a8b977117c1701d7d09e47bf5cbef6a335dd54b02c84a34809";1456259741457;11;43;4;3;"is_probably";"possible";5158;"possible";"is_probably possible";"high"
540;"fe332ff8b579c4a8b977117c1701d7d09e47bf5cbef6a335dd54b02c84a34809";1456259746719;12;103;10;3;"is";"unlikely";5260;"unlikely";"is unlikely";"none"
541;"9415fcaac75ec3ae1fafc27af110f42fcb89f5e80d690e151a3f5d7d3b6bcf1e";1456267097427;1;105;10;5;"is";"possible";19115;"possible";"is possible";"none"
542;"9415fcaac75ec3ae1fafc27af110f42fcb89f5e80d690e151a3f5d7d3b6bcf1e";1456267108155;2;41;4;1;"is";"unlikely";10699;"unlikely";"is unlikely";"high"
543;"9415fcaac75ec3ae1fafc27af110f42fcb89f5e80d690e151a3f5d7d3b6bcf1e";1456267116054;3;80;8;0;"is";"unlikely";7876;"unlikely";"is unlikely";"low"
544;"9415fcaac75ec3ae1fafc27af110f42fcb89f5e80d690e151a3f5d7d3b6bcf1e";1456267125135;4;102;10;2;"might_be";"probable";9052;"likely";"might_be likely";"none"
545;"9415fcaac75ec3ae1fafc27af110f42fcb89f5e80d690e151a3f5d7d3b6bcf1e";1456267133528;5;103;10;3;"is";"unlikely";8370;"unlikely";"is unlikely";"none"
546;"9415fcaac75ec3ae1fafc27af110f42fcb89f5e80d690e151a3f5d7d3b6bcf1e";1456267140524;6;86;8;6;"is_probably";"possible";6978;"possible";"is_probably possible";"low"
547;"9415fcaac75ec3ae1fafc27af110f42fcb89f5e80d690e151a3f5d7d3b6bcf1e";1456267148036;7;42;4;2;"might_be";"possible";7485;"possible";"might_be possible";"high"
548;"9415fcaac75ec3ae1fafc27af110f42fcb89f5e80d690e151a3f5d7d3b6bcf1e";1456267157736;8;88;8;8;"is_certainly";"probable";9674;"likely";"is_certainly likely";"low"
549;"9415fcaac75ec3ae1fafc27af110f42fcb89f5e80d690e151a3f5d7d3b6bcf1e";1456267170558;9;108;10;8;"might_be";"probable";12796;"likely";"might_be likely";"none"
550;"9415fcaac75ec3ae1fafc27af110f42fcb89f5e80d690e151a3f5d7d3b6bcf1e";1456267179519;10;107;10;7;"is_probably";"probable";8947;"likely";"is_probably likely";"none"
551;"9415fcaac75ec3ae1fafc27af110f42fcb89f5e80d690e151a3f5d7d3b6bcf1e";1456267188230;11;20;2;0;"might_be";"unlikely";8690;"unlikely";"might_be unlikely";"high"
552;"9415fcaac75ec3ae1fafc27af110f42fcb89f5e80d690e151a3f5d7d3b6bcf1e";1456267194524;12;22;2;2;"is";"possible";6278;"possible";"is possible";"high"
553;"084ed18776f7b17158c5569ac8106cadd549269453c662d7beb9cebb0d4f4239";1456260931817;1;107;10;7;"is_certainly";"likely";17052;"likely";"is_certainly likely";"none"
554;"084ed18776f7b17158c5569ac8106cadd549269453c662d7beb9cebb0d4f4239";1456260940996;2;84;8;4;"is";"possible";9178;"possible";"is possible";"low"
555;"084ed18776f7b17158c5569ac8106cadd549269453c662d7beb9cebb0d4f4239";1456260995694;3;22;2;2;"is";"probable";54695;"likely";"is likely";"high"
556;"084ed18776f7b17158c5569ac8106cadd549269453c662d7beb9cebb0d4f4239";1456261004908;4;103;10;3;"is_certainly";"unlikely";9210;"unlikely";"is_certainly unlikely";"none"
557;"084ed18776f7b17158c5569ac8106cadd549269453c662d7beb9cebb0d4f4239";1456261010491;5;41;4;1;"is_probably";"unlikely";5582;"unlikely";"is_probably unlikely";"high"
558;"084ed18776f7b17158c5569ac8106cadd549269453c662d7beb9cebb0d4f4239";1456261047311;6;42;4;2;"is_probably";"possible";36818;"possible";"is_probably possible";"high"
559;"084ed18776f7b17158c5569ac8106cadd549269453c662d7beb9cebb0d4f4239";1456261052881;7;108;10;8;"is_certainly";"likely";5567;"likely";"is_certainly likely";"none"
560;"084ed18776f7b17158c5569ac8106cadd549269453c662d7beb9cebb0d4f4239";1456261057943;8;102;10;2;"is_certainly";"unlikely";5061;"unlikely";"is_certainly unlikely";"none"
561;"084ed18776f7b17158c5569ac8106cadd549269453c662d7beb9cebb0d4f4239";1456261062494;9;88;8;8;"is_certainly";"likely";4550;"likely";"is_certainly likely";"low"
562;"084ed18776f7b17158c5569ac8106cadd549269453c662d7beb9cebb0d4f4239";1456261066788;10;80;8;0;"is_certainly";"unlikely";4293;"unlikely";"is_certainly unlikely";"low"
563;"084ed18776f7b17158c5569ac8106cadd549269453c662d7beb9cebb0d4f4239";1456261071752;11;82;8;2;"is_certainly";"unlikely";4962;"unlikely";"is_certainly unlikely";"low"
564;"084ed18776f7b17158c5569ac8106cadd549269453c662d7beb9cebb0d4f4239";1456261076522;12;43;4;3;"might_be";"likely";4769;"likely";"might_be likely";"high"
565;"bfd1e70e24818848d3074f7e612a11eaf8de2e392f72ce14917263c3becfb2c6";1455741278720;1;108;10;8;"is_certainly";"likely";14844;"likely";"is_certainly likely";"none"
566;"bfd1e70e24818848d3074f7e612a11eaf8de2e392f72ce14917263c3becfb2c6";1455741306560;2;102;10;2;"might_be";"unlikely";27824;"unlikely";"might_be unlikely";"none"
567;"bfd1e70e24818848d3074f7e612a11eaf8de2e392f72ce14917263c3becfb2c6";1455741333391;3;43;4;3;"might_be";"likely";26831;"likely";"might_be likely";"high"
568;"bfd1e70e24818848d3074f7e612a11eaf8de2e392f72ce14917263c3becfb2c6";1455741345302;4;80;8;0;"is_probably";"unlikely";11911;"unlikely";"is_probably unlikely";"low"
569;"bfd1e70e24818848d3074f7e612a11eaf8de2e392f72ce14917263c3becfb2c6";1455741355028;5;86;8;6;"is_probably";"unlikely";9726;"unlikely";"is_probably unlikely";"low"
570;"bfd1e70e24818848d3074f7e612a11eaf8de2e392f72ce14917263c3becfb2c6";1455741383063;6;41;4;1;"might_be";"unlikely";28033;"unlikely";"might_be unlikely";"high"
571;"bfd1e70e24818848d3074f7e612a11eaf8de2e392f72ce14917263c3becfb2c6";1455741397945;7;107;10;7;"is_certainly";"possible";14866;"possible";"is_certainly possible";"none"
572;"bfd1e70e24818848d3074f7e612a11eaf8de2e392f72ce14917263c3becfb2c6";1455741407733;8;88;8;8;"is_certainly";"probable";9788;"likely";"is_certainly likely";"low"
573;"bfd1e70e24818848d3074f7e612a11eaf8de2e392f72ce14917263c3becfb2c6";1455741417479;9;103;10;3;"might_be";"possible";9715;"possible";"might_be possible";"none"
574;"bfd1e70e24818848d3074f7e612a11eaf8de2e392f72ce14917263c3becfb2c6";1455741426855;10;105;10;5;"is_probably";"possible";9376;"possible";"is_probably possible";"none"
575;"bfd1e70e24818848d3074f7e612a11eaf8de2e392f72ce14917263c3becfb2c6";1455741433273;11;84;8;4;"is_probably";"possible";6418;"possible";"is_probably possible";"low"
576;"bfd1e70e24818848d3074f7e612a11eaf8de2e392f72ce14917263c3becfb2c6";1455741463414;12;82;8;2;"might_be";"unlikely";30141;"unlikely";"might_be unlikely";"low"
577;"808f18c06a695f9b24bf391db3d5a0ff38ec559cf14f9834d54e2d653489816f";1456259813001;1;43;4;3;"might_be";"likely";46924;"likely";"might_be likely";"high"
578;"808f18c06a695f9b24bf391db3d5a0ff38ec559cf14f9834d54e2d653489816f";1456259846491;2;22;2;2;"is";"possible";33490;"possible";"is possible";"high"
579;"808f18c06a695f9b24bf391db3d5a0ff38ec559cf14f9834d54e2d653489816f";1456259863228;3;88;8;8;"is_certainly";"probable";16737;"likely";"is_certainly likely";"low"
580;"808f18c06a695f9b24bf391db3d5a0ff38ec559cf14f9834d54e2d653489816f";1456259883165;4;86;8;6;"is_probably";"likely";19937;"likely";"is_probably likely";"low"
581;"808f18c06a695f9b24bf391db3d5a0ff38ec559cf14f9834d54e2d653489816f";1456259901261;5;42;4;2;"is";"possible";18096;"possible";"is possible";"high"
582;"808f18c06a695f9b24bf391db3d5a0ff38ec559cf14f9834d54e2d653489816f";1456259909995;6;80;8;0;"is_certainly";"unlikely";8734;"unlikely";"is_certainly unlikely";"low"
583;"808f18c06a695f9b24bf391db3d5a0ff38ec559cf14f9834d54e2d653489816f";1456259927040;7;107;10;7;"is";"likely";17045;"likely";"is likely";"none"
584;"808f18c06a695f9b24bf391db3d5a0ff38ec559cf14f9834d54e2d653489816f";1456259936992;8;20;2;0;"might_be";"possible";9952;"possible";"might_be possible";"high"
585;"808f18c06a695f9b24bf391db3d5a0ff38ec559cf14f9834d54e2d653489816f";1456259950819;9;102;10;2;"is_certainly";"unlikely";13817;"unlikely";"is_certainly unlikely";"none"
586;"808f18c06a695f9b24bf391db3d5a0ff38ec559cf14f9834d54e2d653489816f";1456259960383;10;82;8;2;"is_probably";"unlikely";9554;"unlikely";"is_probably unlikely";"low"
587;"808f18c06a695f9b24bf391db3d5a0ff38ec559cf14f9834d54e2d653489816f";1456259969288;11;108;10;8;"is_certainly";"likely";8905;"likely";"is_certainly likely";"none"
588;"808f18c06a695f9b24bf391db3d5a0ff38ec559cf14f9834d54e2d653489816f";1456259982979;12;103;10;3;"is";"unlikely";13691;"unlikely";"is unlikely";"none"
589;"caf34a9a1fc3f361f9de6b92b1cdc5790a99f16884e8e0b37ff00e7dd3256a77";1456177464305;1;86;8;6;"is_certainly";"probable";28912;"likely";"is_certainly likely";"low"
590;"caf34a9a1fc3f361f9de6b92b1cdc5790a99f16884e8e0b37ff00e7dd3256a77";1456177478656;2;43;4;3;"might_be";"likely";14348;"likely";"might_be likely";"high"
591;"caf34a9a1fc3f361f9de6b92b1cdc5790a99f16884e8e0b37ff00e7dd3256a77";1456177495432;3;42;4;2;"might_be";"likely";16774;"likely";"might_be likely";"high"
592;"caf34a9a1fc3f361f9de6b92b1cdc5790a99f16884e8e0b37ff00e7dd3256a77";1456177513759;4;102;10;2;"is";"unlikely";18323;"unlikely";"is unlikely";"none"
593;"caf34a9a1fc3f361f9de6b92b1cdc5790a99f16884e8e0b37ff00e7dd3256a77";1456177525511;5;103;10;3;"is";"unlikely";11748;"unlikely";"is unlikely";"none"
594;"caf34a9a1fc3f361f9de6b92b1cdc5790a99f16884e8e0b37ff00e7dd3256a77";1456177533285;6;88;8;8;"is_certainly";"probable";7772;"likely";"is_certainly likely";"low"
595;"caf34a9a1fc3f361f9de6b92b1cdc5790a99f16884e8e0b37ff00e7dd3256a77";1456177541302;7;22;2;2;"might_be";"possible";8015;"possible";"might_be possible";"high"
596;"caf34a9a1fc3f361f9de6b92b1cdc5790a99f16884e8e0b37ff00e7dd3256a77";1456177552204;8;84;8;4;"might_be";"possible";10901;"possible";"might_be possible";"low"
597;"caf34a9a1fc3f361f9de6b92b1cdc5790a99f16884e8e0b37ff00e7dd3256a77";1456177559035;9;105;10;5;"might_be";"possible";6830;"possible";"might_be possible";"none"
598;"caf34a9a1fc3f361f9de6b92b1cdc5790a99f16884e8e0b37ff00e7dd3256a77";1456177566275;10;41;4;1;"might_be";"unlikely";7238;"unlikely";"might_be unlikely";"high"
599;"caf34a9a1fc3f361f9de6b92b1cdc5790a99f16884e8e0b37ff00e7dd3256a77";1456177575572;11;80;8;0;"is";"unlikely";9296;"unlikely";"is unlikely";"low"
600;"caf34a9a1fc3f361f9de6b92b1cdc5790a99f16884e8e0b37ff00e7dd3256a77";1456177582922;12;108;10;8;"is";"probable";7349;"likely";"is likely";"none"
601;"37877a03fc3829450847a88451143b34a3db8a00da0df28e713a81e431663568";1456283231959;1;103;10;3;"is_probably";"possible";6680;"possible";"is_probably possible";"none"
602;"37877a03fc3829450847a88451143b34a3db8a00da0df28e713a81e431663568";1456283238008;2;20;2;0;"is_certainly";"probable";6047;"likely";"is_certainly likely";"high"
603;"37877a03fc3829450847a88451143b34a3db8a00da0df28e713a81e431663568";1456283246543;3;22;2;2;"might_be";"possible";8531;"possible";"might_be possible";"high"
604;"37877a03fc3829450847a88451143b34a3db8a00da0df28e713a81e431663568";1456283253918;4;82;8;2;"is_certainly";"probable";7373;"likely";"is_certainly likely";"low"
605;"37877a03fc3829450847a88451143b34a3db8a00da0df28e713a81e431663568";1456283316097;5;80;8;0;"is_certainly";"likely";62178;"likely";"is_certainly likely";"low"
606;"37877a03fc3829450847a88451143b34a3db8a00da0df28e713a81e431663568";1456283322882;6;88;8;8;"is";"unlikely";6779;"unlikely";"is unlikely";"low"
607;"37877a03fc3829450847a88451143b34a3db8a00da0df28e713a81e431663568";1456283329257;7;102;10;2;"is_probably";"possible";6373;"possible";"is_probably possible";"none"
608;"37877a03fc3829450847a88451143b34a3db8a00da0df28e713a81e431663568";1456283333296;8;43;4;3;"is_probably";"probable";4037;"likely";"is_probably likely";"high"
609;"37877a03fc3829450847a88451143b34a3db8a00da0df28e713a81e431663568";1456283337151;9;42;4;2;"might_be";"possible";3853;"possible";"might_be possible";"high"
610;"37877a03fc3829450847a88451143b34a3db8a00da0df28e713a81e431663568";1456283341582;10;86;8;6;"might_be";"unlikely";4429;"unlikely";"might_be unlikely";"low"
611;"37877a03fc3829450847a88451143b34a3db8a00da0df28e713a81e431663568";1456283345447;11;84;8;4;"is";"unlikely";3863;"unlikely";"is unlikely";"low"
612;"37877a03fc3829450847a88451143b34a3db8a00da0df28e713a81e431663568";1456283349093;12;105;10;5;"might_be";"unlikely";3644;"unlikely";"might_be unlikely";"none"
613;"5f56dcb0e32f91b8ab3ba764df9181892f1803b6394132c4136c4750b4b36351";1456169498163;1;22;2;2;"might_be";"possible";11666;"possible";"might_be possible";"high"
614;"5f56dcb0e32f91b8ab3ba764df9181892f1803b6394132c4136c4750b4b36351";1456169505343;2;43;4;3;"is";"possible";7171;"possible";"is possible";"high"
615;"5f56dcb0e32f91b8ab3ba764df9181892f1803b6394132c4136c4750b4b36351";1456169513366;3;41;4;1;"is";"unlikely";8014;"unlikely";"is unlikely";"high"
616;"5f56dcb0e32f91b8ab3ba764df9181892f1803b6394132c4136c4750b4b36351";1456169523726;4;86;8;6;"is_probably";"likely";10351;"likely";"is_probably likely";"low"
617;"5f56dcb0e32f91b8ab3ba764df9181892f1803b6394132c4136c4750b4b36351";1456169552671;5;107;10;7;"is";"probable";28935;"likely";"is likely";"none"
618;"5f56dcb0e32f91b8ab3ba764df9181892f1803b6394132c4136c4750b4b36351";1456169560670;6;88;8;8;"is_certainly";"likely";7984;"likely";"is_certainly likely";"low"
619;"5f56dcb0e32f91b8ab3ba764df9181892f1803b6394132c4136c4750b4b36351";1456169566945;7;84;8;4;"might_be";"possible";6260;"possible";"might_be possible";"low"
620;"5f56dcb0e32f91b8ab3ba764df9181892f1803b6394132c4136c4750b4b36351";1456169573397;8;108;10;8;"is_probably";"likely";6439;"likely";"is_probably likely";"none"
621;"5f56dcb0e32f91b8ab3ba764df9181892f1803b6394132c4136c4750b4b36351";1456169582687;9;80;8;0;"is_certainly";"unlikely";9277;"unlikely";"is_certainly unlikely";"low"
622;"5f56dcb0e32f91b8ab3ba764df9181892f1803b6394132c4136c4750b4b36351";1456169588621;10;105;10;5;"might_be";"possible";5916;"possible";"might_be possible";"none"
623;"5f56dcb0e32f91b8ab3ba764df9181892f1803b6394132c4136c4750b4b36351";1456169597285;11;82;8;2;"is";"unlikely";8653;"unlikely";"is unlikely";"low"
624;"5f56dcb0e32f91b8ab3ba764df9181892f1803b6394132c4136c4750b4b36351";1456169604251;12;20;2;0;"might_be";"possible";6957;"possible";"might_be possible";"high"
625;"f3c714f8f305c1f7325e2f5e8da07102becfa7c21427923ac0f7fb48862427db";1456282841163;1;88;8;8;"is_probably";"possible";5543;"possible";"is_probably possible";"low"
626;"f3c714f8f305c1f7325e2f5e8da07102becfa7c21427923ac0f7fb48862427db";1456282847682;2;20;2;0;"might_be";"probable";6518;"likely";"might_be likely";"high"
627;"f3c714f8f305c1f7325e2f5e8da07102becfa7c21427923ac0f7fb48862427db";1456282854533;3;82;8;2;"is_certainly";"unlikely";6849;"unlikely";"is_certainly unlikely";"low"
628;"f3c714f8f305c1f7325e2f5e8da07102becfa7c21427923ac0f7fb48862427db";1456282866576;4;86;8;6;"might_be";"unlikely";12041;"unlikely";"might_be unlikely";"low"
629;"f3c714f8f305c1f7325e2f5e8da07102becfa7c21427923ac0f7fb48862427db";1456282879594;5;108;10;8;"is_certainly";"unlikely";13016;"unlikely";"is_certainly unlikely";"none"
630;"f3c714f8f305c1f7325e2f5e8da07102becfa7c21427923ac0f7fb48862427db";1456282927053;6;103;10;3;"is_probably";"probable";47456;"likely";"is_probably likely";"none"
631;"f3c714f8f305c1f7325e2f5e8da07102becfa7c21427923ac0f7fb48862427db";1456282932379;7;102;10;2;"is_probably";"likely";5324;"likely";"is_probably likely";"none"
632;"f3c714f8f305c1f7325e2f5e8da07102becfa7c21427923ac0f7fb48862427db";1456282937237;8;43;4;3;"is_probably";"unlikely";4856;"unlikely";"is_probably unlikely";"high"
633;"f3c714f8f305c1f7325e2f5e8da07102becfa7c21427923ac0f7fb48862427db";1456282941914;9;80;8;0;"is_certainly";"likely";4676;"likely";"is_certainly likely";"low"
634;"f3c714f8f305c1f7325e2f5e8da07102becfa7c21427923ac0f7fb48862427db";1456282947195;10;84;8;4;"might_be";"possible";5279;"possible";"might_be possible";"low"
635;"f3c714f8f305c1f7325e2f5e8da07102becfa7c21427923ac0f7fb48862427db";1456282953315;11;105;10;5;"might_be";"likely";6118;"likely";"might_be likely";"none"
636;"f3c714f8f305c1f7325e2f5e8da07102becfa7c21427923ac0f7fb48862427db";1456283030918;12;107;10;7;"is_probably";"unlikely";77601;"unlikely";"is_probably unlikely";"none"
637;"c34fd1774bed43825a846010eabf2d644598ce26ca646d6d7a8b9937b142d040";1456259608710;1;88;8;8;"might_be";"possible";21570;"possible";"might_be possible";"low"
638;"c34fd1774bed43825a846010eabf2d644598ce26ca646d6d7a8b9937b142d040";1456259631709;2;20;2;0;"is";"unlikely";22997;"unlikely";"is unlikely";"high"
639;"c34fd1774bed43825a846010eabf2d644598ce26ca646d6d7a8b9937b142d040";1456259644181;3;103;10;3;"is";"unlikely";12471;"unlikely";"is unlikely";"none"
640;"c34fd1774bed43825a846010eabf2d644598ce26ca646d6d7a8b9937b142d040";1456259651885;4;82;8;2;"is";"unlikely";7704;"unlikely";"is unlikely";"low"
641;"c34fd1774bed43825a846010eabf2d644598ce26ca646d6d7a8b9937b142d040";1456259658317;5;102;10;2;"is";"unlikely";6431;"unlikely";"is unlikely";"none"
